%%            108.00000             1.00000    0             0.12700
% LAB  survey ------------------
% wanted position:  l, b, RA, DEC, and interpolated  NH
%108.00 ;   1.00 ; 341.63 ;  60.20 ;  0.744E+22
% nearest position: l, b, RA, DEC, and observed NH
%108.00 ;   1.00 ; 341.63 ;  60.20 ;  0.744E+22
% GASS III survey --------------
% NH - median within 6 arcmin radius   0.00    
% NH - mean within specified beam      0.00    
% EBHIS survey -----------------
% NH  within specified beam           0.800E+22
%%EBHIS   621  datapoints: v_lsr [km/s] and T_B [K]
    -399.25    -0.050
    -397.96     0.013
    -396.68     0.110
    -395.39    -0.042
    -394.10     0.093
    -392.81     0.019
    -391.52    -0.008
    -390.23    -0.098
    -388.95    -0.088
    -387.66     0.080
    -386.37    -0.032
    -385.08    -0.063
    -383.79     0.045
    -382.50     0.099
    -381.22    -0.092
    -379.93     0.030
    -378.64    -0.099
    -377.35    -0.106
    -376.06     0.016
    -374.78     0.125
    -373.49     0.066
    -372.20    -0.088
    -370.91    -0.039
    -369.62    -0.029
    -368.33    -0.047
    -367.05    -0.129
    -365.76    -0.050
    -364.47     0.086
    -363.18     0.187
    -361.89     0.017
    -360.60    -0.070
    -359.32    -0.022
    -358.03    -0.056
    -356.74    -0.100
    -355.45    -0.062
    -354.16     0.114
    -352.88     0.054
    -351.59    -0.127
    -350.30    -0.056
    -349.01    -0.043
    -347.72     0.034
    -346.43    -0.012
    -345.15    -0.062
    -343.86    -0.023
    -342.57     0.089
    -341.28    -0.037
    -339.99     0.014
    -338.70     0.058
    -337.42    -0.046
    -336.13    -0.097
    -334.84     0.006
    -333.55     0.117
    -332.26     0.054
    -330.98    -0.009
    -329.69    -0.020
    -328.40    -0.064
    -327.11     0.038
    -325.82     0.067
    -324.53     0.006
    -323.25     0.007
    -321.96     0.113
    -320.67    -0.029
    -319.38    -0.039
    -318.09     0.081
    -316.80     0.081
    -315.52     0.000
    -314.23     0.095
    -312.94     0.107
    -311.65    -0.070
    -310.36    -0.008
    -309.08     0.075
    -307.79     0.007
    -306.50    -0.073
    -305.21    -0.089
    -303.92    -0.067
    -302.63     0.009
    -301.35    -0.095
    -300.06    -0.108
    -298.77    -0.007
    -297.48     0.102
    -296.19     0.024
    -294.90    -0.023
    -293.62    -0.068
    -292.33     0.074
    -291.04    -0.181
    -289.75    -0.058
    -288.46    -0.021
    -287.18     0.026
    -285.89     0.092
    -284.60     0.015
    -283.31     0.100
    -282.02    -0.000
    -280.73    -0.019
    -279.45    -0.038
    -278.16    -0.024
    -276.87     0.126
    -275.58    -0.049
    -274.29     0.042
    -273.00    -0.078
    -271.72    -0.022
    -270.43     0.030
    -269.14    -0.005
    -267.85     0.031
    -266.56     0.036
    -265.28    -0.013
    -263.99     0.073
    -262.70    -0.004
    -261.41    -0.178
    -260.12    -0.153
    -258.83    -0.016
    -257.55    -0.049
    -256.26    -0.076
    -254.97    -0.033
    -253.68    -0.013
    -252.39    -0.016
    -251.10     0.123
    -249.82     0.046
    -248.53    -0.025
    -247.24     0.061
    -245.95     0.004
    -244.66     0.046
    -243.38    -0.034
    -242.09    -0.000
    -240.80    -0.079
    -239.51    -0.003
    -238.22    -0.036
    -236.93     0.148
    -235.65     0.239
    -234.36     0.071
    -233.07    -0.026
    -231.78    -0.052
    -230.49    -0.055
    -229.20     0.017
    -227.92    -0.048
    -226.63    -0.018
    -225.34    -0.137
    -224.05    -0.173
    -222.76    -0.125
    -221.48    -0.099
    -220.19     0.060
    -218.90     0.061
    -217.61     0.052
    -216.32     0.009
    -215.03    -0.104
    -213.75     0.011
    -212.46     0.050
    -211.17    -0.007
    -209.88     0.041
    -208.59     0.017
    -207.30    -0.078
    -206.02    -0.033
    -204.73    -0.038
    -203.44    -0.058
    -202.15    -0.099
    -200.86    -0.095
    -199.58     0.140
    -198.29     0.112
    -197.00    -0.049
    -195.71     0.081
    -194.42     0.027
    -193.13    -0.005
    -191.85     0.006
    -190.56    -0.059
    -189.27    -0.077
    -187.98     0.039
    -186.69     0.095
    -185.40     0.100
    -184.12    -0.099
    -182.83    -0.059
    -181.54    -0.007
    -180.25    -0.018
    -178.96     0.087
    -177.68     0.117
    -176.39    -0.009
    -175.10    -0.080
    -173.81     0.119
    -172.52     0.038
    -171.23     0.044
    -169.95     0.072
    -168.66     0.169
    -167.37     0.162
    -166.08     0.073
    -164.79     0.122
    -163.50    -0.027
    -162.22    -0.059
    -160.93     0.014
    -159.64     0.136
    -158.35     0.038
    -157.06     0.075
    -155.78     0.175
    -154.49     0.126
    -153.20     0.039
    -151.91     0.223
    -150.62     0.336
    -149.33     0.257
    -148.05     0.268
    -146.76     0.311
    -145.47     0.352
    -144.18     0.412
    -142.89     0.467
    -141.60     0.730
    -140.32     0.769
    -139.03     0.766
    -137.74     0.809
    -136.45     0.807
    -135.16     0.941
    -133.88     1.229
    -132.59     1.245
    -131.30     1.309
    -130.01     1.626
    -128.72     2.151
    -127.43     2.998
    -126.15     3.628
    -124.86     4.405
    -123.57     5.120
    -122.28     5.011
    -120.99     4.473
    -119.70     3.843
    -118.42     3.351
    -117.13     3.025
    -115.84     3.180
    -114.55     3.331
    -113.26     3.453
    -111.98     3.988
    -110.69     4.414
    -109.40     4.804
    -108.11     5.528
    -106.82     6.538
    -105.53     7.732
    -104.25     8.931
    -102.96    11.085
    -101.67    14.175
    -100.38    18.930
     -99.09    24.232
     -97.80    27.738
     -96.52    28.977
     -95.23    29.010
     -93.94    25.047
     -92.65    18.742
     -91.36    12.926
     -90.08     9.168
     -88.79     6.609
     -87.50     5.112
     -86.21     4.125
     -84.92     3.941
     -83.63     4.141
     -82.35     4.444
     -81.06     5.229
     -79.77     6.065
     -78.48     6.561
     -77.19     7.472
     -75.90     8.332
     -74.62     9.548
     -73.33    11.332
     -72.04    13.433
     -70.75    19.507
     -69.46    28.349
     -68.18    31.465
     -66.89    34.101
     -65.60    33.694
     -64.31    39.830
     -63.02    44.151
     -61.73    49.157
     -60.45    56.479
     -59.16    65.367
     -57.87    75.878
     -56.58    84.427
     -55.29    88.137
     -54.00    89.269
     -52.72    86.152
     -51.43    81.315
     -50.14    78.119
     -48.85    76.813
     -47.56    76.950
     -46.28    76.635
     -44.99    74.551
     -43.70    67.847
     -42.41    55.367
     -41.12    43.295
     -39.83    34.335
     -38.55    27.644
     -37.26    22.933
     -35.97    18.087
     -34.68    14.956
     -33.39    14.143
     -32.10    15.510
     -30.82    18.785
     -29.53    22.806
     -28.24    27.211
     -26.95    28.889
     -25.66    26.330
     -24.38    21.874
     -23.09    18.110
     -21.80    15.622
     -20.51    14.619
     -19.22    14.880
     -17.93    16.190
     -16.65    19.072
     -15.36    22.998
     -14.07    31.026
     -12.78    43.529
     -11.49    56.990
     -10.20    68.910
      -8.92    77.842
      -7.63    81.246
      -6.34    80.944
      -5.05    81.542
      -3.76    81.729
      -2.48    79.742
      -1.19    77.367
       0.10    74.008
       1.39    66.458
       2.68    53.926
       3.97    41.195
       5.25    32.435
       6.54    26.149
       7.83    19.188
       9.12    11.744
      10.41     7.432
      11.70     5.265
      12.98     3.753
      14.27     2.628
      15.56     1.894
      16.85     1.448
      18.14     1.017
      19.42     0.720
      20.71     0.706
      22.00     0.492
      23.29     0.256
      24.58     0.175
      25.87     0.239
      27.15     0.068
      28.44     0.111
      29.73    -0.054
      31.02    -0.015
      32.31    -0.004
      33.60    -0.025
      34.88    -0.057
      36.17    -0.037
      37.46     0.028
      38.75     0.087
      40.04    -0.018
      41.32     0.112
      42.61     0.074
      43.90     0.071
      45.19    -0.060
      46.48    -0.049
      47.77     0.034
      49.05    -0.081
      50.34     0.000
      51.63    -0.134
      52.92     0.015
      54.21    -0.081
      55.50    -0.049
      56.78     0.059
      58.07    -0.063
      59.36     0.078
      60.65     0.056
      61.94     0.027
      63.22    -0.128
      64.51     0.002
      65.80    -0.027
      67.09     0.052
      68.38    -0.093
      69.67    -0.092
      70.95    -0.075
      72.24     0.059
      73.53     0.133
      74.82    -0.035
      76.11    -0.088
      77.40    -0.005
      78.68     0.056
      79.97     0.106
      81.26    -0.049
      82.55     0.018
      83.84     0.109
      85.12     0.015
      86.41    -0.044
      87.70    -0.015
      88.99    -0.050
      90.28     0.118
      91.57    -0.124
      92.85     0.035
      94.14    -0.032
      95.43    -0.033
      96.72    -0.052
      98.01    -0.070
      99.30     0.132
     100.58     0.020
     101.87     0.024
     103.16     0.284
     104.45     0.047
     105.74     0.050
     107.02    -0.032
     108.31     0.194
     109.60     0.120
     110.89     0.097
     112.18    -0.107
     113.47    -0.057
     114.75     0.040
     116.04     0.131
     117.33     0.105
     118.62     0.101
     119.91     0.081
     121.20     0.031
     122.48    -0.010
     123.77     0.002
     125.06    -0.070
     126.35     0.082
     127.64     0.042
     128.92     0.023
     130.21    -0.062
     131.50    -0.044
     132.79    -0.034
     134.08     0.028
     135.37     0.030
     136.65    -0.015
     137.94    -0.060
     139.23     0.024
     140.52     0.072
     141.81     0.007
     143.09     0.030
     144.38    -0.088
     145.67    -0.096
     146.96     0.082
     148.25     0.147
     149.54    -0.049
     150.82     0.058
     152.11     0.102
     153.40    -0.015
     154.69    -0.151
     155.98    -0.051
     157.27    -0.093
     158.55    -0.069
     159.84     0.000
     161.13    -0.059
     162.42     0.096
     163.71    -0.064
     164.99     0.014
     166.28     0.024
     167.57     0.044
     168.86     0.056
     170.15    -0.111
     171.44    -0.033
     172.72    -0.050
     174.01    -0.037
     175.30     0.020
     176.59     0.050
     177.88     0.030
     179.17    -0.051
     180.45     0.019
     181.74    -0.060
     183.03     0.064
     184.32    -0.074
     185.61    -0.001
     186.89     0.095
     188.18     0.056
     189.47     0.002
     190.76     0.027
     192.05     0.049
     193.34     0.026
     194.62    -0.080
     195.91    -0.101
     197.20    -0.017
     198.49    -0.016
     199.78    -0.014
     201.07     0.024
     202.35     0.027
     203.64    -0.025
     204.93     0.061
     206.22     0.098
     207.51    -0.001
     208.79     0.147
     210.08    -0.071
     211.37     0.012
     212.66     0.013
     213.95    -0.096
     215.24    -0.125
     216.52     0.017
     217.81    -0.070
     219.10    -0.033
     220.39    -0.040
     221.68     0.083
     222.97     0.017
     224.25    -0.073
     225.54    -0.021
     226.83     0.012
     228.12    -0.072
     229.41    -0.016
     230.69    -0.022
     231.98     0.092
     233.27    -0.001
     234.56    -0.022
     235.85    -0.097
     237.14    -0.053
     238.42     0.056
     239.71     0.004
     241.00    -0.052
     242.29     0.006
     243.58     0.138
     244.87    -0.035
     246.15    -0.093
     247.44     0.001
     248.73     0.060
     250.02    -0.003
     251.31     0.135
     252.59     0.121
     253.88     0.030
     255.17    -0.066
     256.46    -0.054
     257.75     0.087
     259.04     0.127
     260.32     0.063
     261.61    -0.065
     262.90     0.031
     264.19     0.009
     265.48     0.035
     266.77     0.104
     268.05    -0.014
     269.34    -0.049
     270.63    -0.141
     271.92    -0.089
     273.21     0.017
     274.49     0.079
     275.78     0.138
     277.07    -0.055
     278.36    -0.038
     279.65    -0.136
     280.94    -0.157
     282.22    -0.082
     283.51    -0.022
     284.80     0.072
     286.09    -0.095
     287.38    -0.056
     288.67    -0.074
     289.95     0.040
     291.24     0.013
     292.53     0.107
     293.82    -0.064
     295.11    -0.100
     296.39    -0.113
     297.68     0.121
     298.97     0.026
     300.26     0.003
     301.55     0.004
     302.84    -0.020
     304.12     0.108
     305.41     0.055
     306.70     0.044
     307.99     0.029
     309.28     0.076
     310.57    -0.106
     311.85    -0.090
     313.14    -0.060
     314.43    -0.074
     315.72     0.063
     317.01     0.232
     318.29     0.151
     319.58     0.002
     320.87     0.005
     322.16     0.063
     323.45     0.120
     324.74     0.141
     326.02     0.070
     327.31    -0.062
     328.60    -0.011
     329.89     0.053
     331.18     0.003
     332.47     0.005
     333.75    -0.090
     335.04    -0.036
     336.33    -0.052
     337.62    -0.011
     338.91     0.035
     340.19    -0.046
     341.48     0.022
     342.77     0.070
     344.06     0.099
     345.35     0.040
     346.64     0.067
     347.92     0.033
     349.21     0.085
     350.50     0.026
     351.79    -0.049
     353.08     0.030
     354.37    -0.005
     355.65    -0.117
     356.94    -0.112
     358.23    -0.067
     359.52    -0.040
     360.81    -0.008
     362.09    -0.001
     363.38    -0.229
     364.67    -0.027
     365.96    -0.091
     367.25     0.014
     368.54     0.025
     369.82     0.090
     371.11     0.000
     372.40    -0.083
     373.69    -0.019
     374.98    -0.118
     376.27     0.086
     377.55    -0.038
     378.84    -0.105
     380.13    -0.011
     381.42     0.101
     382.71     0.167
     383.99     0.156
     385.28     0.066
     386.57    -0.059
     387.86     0.070
     389.15     0.015
     390.44     0.018
     391.72    -0.185
     393.01    -0.119
     394.30    -0.007
     395.59     0.031
     396.88    -0.008
     398.17    -0.028
     399.45     0.078
%%GASS      0  datapoints: v_lsr [km/s] and T_B [K] for beam weighted average and median within 6 arcmin
%%LAB     777  datapoints: v_lsr [km/s] and T_B [K]
    -399.83     0.173
    -398.80     0.026
    -397.77     0.049
    -396.74    -0.033
    -395.71     0.039
    -394.68     0.036
    -393.65     0.114
    -392.62     0.065
    -391.59    -0.075
    -390.56     0.037
    -389.53     0.004
    -388.50    -0.048
    -387.47     0.047
    -386.44     0.049
    -385.41    -0.079
    -384.38    -0.098
    -383.35     0.025
    -382.32     0.060
    -381.29     0.155
    -380.26    -0.078
    -379.22    -0.045
    -378.19     0.037
    -377.16    -0.049
    -376.13     0.034
    -375.10    -0.105
    -374.07     0.047
    -373.04     0.040
    -372.01    -0.070
    -370.98     0.178
    -369.95    -0.014
    -368.92    -0.021
    -367.89     0.045
    -366.86     0.138
    -365.83     0.090
    -364.80    -0.088
    -363.77    -0.116
    -362.74     0.036
    -361.71     0.108
    -360.68    -0.038
    -359.65    -0.051
    -358.61     0.004
    -357.58    -0.092
    -356.55    -0.103
    -355.52    -0.015
    -354.49    -0.169
    -353.46     0.146
    -352.43     0.088
    -351.40    -0.127
    -350.37    -0.121
    -349.34    -0.006
    -348.31    -0.088
    -347.28     0.032
    -346.25     0.094
    -345.22    -0.041
    -344.19    -0.005
    -343.16    -0.077
    -342.13     0.003
    -341.10     0.091
    -340.07     0.183
    -339.04    -0.058
    -338.00     0.041
    -336.97    -0.066
    -335.94    -0.008
    -334.91     0.009
    -333.88    -0.025
    -332.85    -0.056
    -331.82     0.023
    -330.79     0.009
    -329.76     0.104
    -328.73     0.082
    -327.70     0.043
    -326.67     0.011
    -325.64    -0.070
    -324.61     0.019
    -323.58     0.071
    -322.55    -0.003
    -321.52    -0.037
    -320.49     0.047
    -319.46    -0.167
    -318.43     0.006
    -317.39    -0.148
    -316.36     0.020
    -315.33    -0.066
    -314.30    -0.132
    -313.27    -0.067
    -312.24    -0.006
    -311.21     0.130
    -310.18    -0.015
    -309.15    -0.123
    -308.12    -0.034
    -307.09     0.070
    -306.06    -0.016
    -305.03    -0.032
    -304.00    -0.084
    -302.97    -0.090
    -301.94    -0.082
    -300.91    -0.188
    -299.88    -0.099
    -298.85     0.023
    -297.82    -0.000
    -296.78    -0.103
    -295.75    -0.033
    -294.72    -0.008
    -293.69     0.118
    -292.66    -0.095
    -291.63    -0.039
    -290.60    -0.015
    -289.57    -0.024
    -288.54     0.156
    -287.51     0.025
    -286.48    -0.045
    -285.45    -0.122
    -284.42    -0.033
    -283.39    -0.128
    -282.36     0.156
    -281.33     0.071
    -280.30    -0.027
    -279.27     0.003
    -278.24    -0.020
    -277.21     0.118
    -276.17     0.215
    -275.14     0.070
    -274.11     0.008
    -273.08     0.074
    -272.05     0.125
    -271.02    -0.093
    -269.99     0.131
    -268.96     0.066
    -267.93     0.057
    -266.90     0.138
    -265.87    -0.009
    -264.84     0.188
    -263.81     0.101
    -262.78     0.109
    -261.75     0.142
    -260.72     0.152
    -259.69     0.121
    -258.66    -0.150
    -257.63     0.099
    -256.60    -0.033
    -255.56     0.080
    -254.53    -0.077
    -253.50     0.037
    -252.47    -0.010
    -251.44     0.147
    -250.41     0.180
    -249.38     0.031
    -248.35    -0.077
    -247.32     0.066
    -246.29     0.070
    -245.26     0.015
    -244.23     0.070
    -243.20     0.045
    -242.17    -0.027
    -241.14     0.043
    -240.11     0.025
    -239.08     0.037
    -238.05     0.155
    -237.02    -0.087
    -235.98     0.043
    -234.95     0.041
    -233.92    -0.110
    -232.89     0.026
    -231.86     0.009
    -230.83     0.003
    -229.80    -0.066
    -228.77     0.126
    -227.74    -0.003
    -226.71    -0.043
    -225.68    -0.061
    -224.65     0.030
    -223.62    -0.144
    -222.59     0.165
    -221.56    -0.064
    -220.53     0.141
    -219.50    -0.042
    -218.47    -0.100
    -217.44    -0.051
    -216.41     0.018
    -215.37    -0.078
    -214.34    -0.021
    -213.31     0.141
    -212.28     0.217
    -211.25    -0.045
    -210.22     0.103
    -209.19    -0.031
    -208.16     0.045
    -207.13    -0.028
    -206.10    -0.002
    -205.07    -0.030
    -204.04     0.020
    -203.01    -0.078
    -201.98     0.007
    -200.95    -0.120
    -199.92    -0.131
    -198.89    -0.202
    -197.86     0.029
    -196.83     0.071
    -195.80     0.064
    -194.76     0.051
    -193.73     0.087
    -192.70     0.062
    -191.67    -0.005
    -190.64     0.029
    -189.61     0.058
    -188.58    -0.072
    -187.55    -0.178
    -186.52     0.029
    -185.49     0.088
    -184.46    -0.059
    -183.43     0.019
    -182.40    -0.056
    -181.37    -0.124
    -180.34    -0.005
    -179.31     0.065
    -178.28    -0.006
    -177.25    -0.112
    -176.22    -0.044
    -175.19    -0.031
    -174.15     0.115
    -173.12     0.060
    -172.09     0.060
    -171.06    -0.009
    -170.03     0.113
    -169.00    -0.070
    -167.97    -0.065
    -166.94     0.059
    -165.91     0.059
    -164.88     0.102
    -163.85     0.101
    -162.82    -0.087
    -161.79    -0.047
    -160.76     0.092
    -159.73     0.053
    -158.70     0.204
    -157.67     0.012
    -156.64     0.163
    -155.61     0.104
    -154.58     0.159
    -153.54     0.118
    -152.51     0.118
    -151.48     0.060
    -150.45     0.294
    -149.42     0.181
    -148.39     0.342
    -147.36     0.375
    -146.33     0.481
    -145.30     0.408
    -144.27     0.504
    -143.24     0.656
    -142.21     0.491
    -141.18     0.756
    -140.15     0.830
    -139.12     0.696
    -138.09     0.801
    -137.06     0.891
    -136.03     1.067
    -135.00     1.011
    -133.97     0.875
    -132.93     1.095
    -131.90     1.340
    -130.87     1.278
    -129.84     1.611
    -128.81     1.862
    -127.78     1.958
    -126.75     2.378
    -125.72     2.654
    -124.69     3.132
    -123.66     3.782
    -122.63     3.671
    -121.60     3.911
    -120.57     3.626
    -119.54     3.313
    -118.51     3.030
    -117.48     3.069
    -116.45     2.832
    -115.42     3.161
    -114.39     3.211
    -113.36     3.320
    -112.32     3.432
    -111.29     3.764
    -110.26     4.158
    -109.23     4.366
    -108.20     4.894
    -107.17     5.509
    -106.14     6.122
    -105.11     7.241
    -104.08     8.493
    -103.05    10.227
    -102.02    12.492
    -100.99    14.581
     -99.96    16.528
     -98.93    18.927
     -97.90    21.736
     -96.87    24.673
     -95.84    26.630
     -94.81    26.681
     -93.78    23.615
     -92.75    18.725
     -91.71    14.390
     -90.68    11.174
     -89.65     8.503
     -88.62     6.753
     -87.59     5.525
     -86.56     4.845
     -85.53     4.163
     -84.50     4.066
     -83.47     4.320
     -82.44     4.573
     -81.41     4.696
     -80.38     4.929
     -79.35     5.440
     -78.32     6.047
     -77.29     6.481
     -76.26     7.571
     -75.23     8.770
     -74.20    10.001
     -73.17    11.752
     -72.14    13.902
     -71.10    16.487
     -70.07    20.043
     -69.04    24.067
     -68.01    28.916
     -66.98    33.505
     -65.95    37.491
     -64.92    40.468
     -63.89    42.737
     -62.86    45.583
     -61.83    49.685
     -60.80    54.349
     -59.77    59.424
     -58.74    65.002
     -57.71    70.000
     -56.68    74.236
     -55.65    77.361
     -54.62    79.460
     -53.59    78.727
     -52.56    77.507
     -51.53    76.310
     -50.49    75.717
     -49.46    74.719
     -48.43    73.827
     -47.40    74.362
     -46.37    73.762
     -45.34    72.451
     -44.31    68.159
     -43.28    61.451
     -42.25    51.634
     -41.22    41.193
     -40.19    32.339
     -39.16    25.724
     -38.13    21.368
     -37.10    18.668
     -36.07    16.214
     -35.04    14.366
     -34.01    13.587
     -32.98    14.082
     -31.95    16.289
     -30.92    19.455
     -29.88    23.057
     -28.85    25.892
     -27.82    27.619
     -26.79    27.865
     -25.76    25.902
     -24.73    21.974
     -23.70    18.443
     -22.67    15.323
     -21.64    13.313
     -20.61    12.772
     -19.58    12.727
     -18.55    13.494
     -17.52    15.307
     -16.49    17.753
     -15.46    21.176
     -14.43    26.370
     -13.40    33.674
     -12.37    42.849
     -11.34    51.888
     -10.30    59.312
      -9.27    66.153
      -8.24    70.681
      -7.21    72.778
      -6.18    74.504
      -5.15    76.061
      -4.12    77.178
      -3.09    75.773
      -2.06    74.082
      -1.03    71.780
       0.00    69.218
       1.03    63.949
       2.06    55.942
       3.09    45.852
       4.12    36.933
       5.15    30.300
       6.18    24.478
       7.21    19.614
       8.24    14.950
       9.27    10.906
      10.30     8.357
      11.34     6.141
      12.37     4.483
      13.40     3.219
      14.43     2.258
      15.46     1.674
      16.49     1.336
      17.52     0.888
      18.55     0.674
      19.58     0.664
      20.61     0.425
      21.64     0.344
      22.67     0.418
      23.70     0.301
      24.73     0.071
      25.76     0.245
      26.79     0.203
      27.82     0.103
      28.85     0.172
      29.88     0.058
      30.92     0.058
      31.95    -0.006
      32.98    -0.103
      34.01    -0.120
      35.04    -0.009
      36.07    -0.066
      37.10     0.028
      38.13    -0.004
      39.16     0.169
      40.19     0.025
      41.22     0.206
      42.25    -0.022
      43.28     0.147
      44.31     0.173
      45.34    -0.005
      46.37     0.030
      47.40    -0.043
      48.43    -0.060
      49.46     0.007
      50.49     0.053
      51.53     0.087
      52.56     0.284
      53.59     0.105
      54.62     0.098
      55.65     0.011
      56.68     0.057
      57.71     0.045
      58.74     0.193
      59.77     0.069
      60.80    -0.116
      61.83     0.031
      62.86    -0.227
      63.89     0.063
      64.92    -0.043
      65.95    -0.055
      66.98     0.003
      68.01     0.203
      69.04    -0.015
      70.07    -0.115
      71.10     0.018
      72.14     0.029
      73.17    -0.053
      74.20    -0.045
      75.23     0.058
      76.26    -0.026
      77.29     0.066
      78.32     0.045
      79.35     0.094
      80.38     0.026
      81.41     0.081
      82.44     0.159
      83.47    -0.004
      84.50     0.023
      85.53    -0.148
      86.56    -0.070
      87.59    -0.065
      88.62     0.077
      89.65     0.018
      90.68    -0.033
      91.71    -0.183
      92.75     0.014
      93.78     0.161
      94.81     0.056
      95.84    -0.016
      96.87    -0.013
      97.90    -0.058
      98.93     0.060
      99.96     0.003
     100.99     0.228
     102.02     0.149
     103.05     0.004
     104.08    -0.043
     105.11     0.018
     106.14     0.105
     107.17    -0.066
     108.20    -0.016
     109.23    -0.027
     110.26    -0.101
     111.29    -0.011
     112.32     0.040
     113.36     0.088
     114.39    -0.038
     115.42     0.013
     116.45    -0.036
     117.48     0.075
     118.51    -0.071
     119.54     0.043
     120.57    -0.048
     121.60    -0.006
     122.63     0.020
     123.66     0.214
     124.69     0.116
     125.72     0.175
     126.75    -0.030
     127.78    -0.047
     128.81     0.188
     129.84    -0.037
     130.87     0.012
     131.90     0.091
     132.93    -0.135
     133.97    -0.026
     135.00    -0.033
     136.03    -0.037
     137.06     0.032
     138.09     0.102
     139.12    -0.223
     140.15    -0.008
     141.18     0.052
     142.21     0.077
     143.24     0.051
     144.27     0.060
     145.30     0.001
     146.33     0.136
     147.36     0.126
     148.39     0.178
     149.42    -0.129
     150.45    -0.020
     151.48     0.019
     152.51    -0.060
     153.54     0.081
     154.58     0.002
     155.61    -0.036
     156.64    -0.033
     157.67    -0.019
     158.70     0.083
     159.73     0.065
     160.76     0.068
     161.79     0.124
     162.82     0.012
     163.85    -0.006
     164.88     0.180
     165.91    -0.092
     166.94     0.054
     167.97     0.029
     169.00    -0.129
     170.03    -0.048
     171.06    -0.095
     172.09    -0.020
     173.12     0.113
     174.15     0.021
     175.19    -0.020
     176.22    -0.141
     177.25    -0.149
     178.28    -0.094
     179.31    -0.103
     180.34    -0.067
     181.37     0.125
     182.40    -0.037
     183.43     0.052
     184.46    -0.049
     185.49    -0.065
     186.52    -0.129
     187.55     0.092
     188.58    -0.049
     189.61    -0.112
     190.64    -0.126
     191.67     0.063
     192.70     0.079
     193.73     0.099
     194.76    -0.151
     195.80     0.087
     196.83    -0.067
     197.86     0.121
     198.89    -0.042
     199.92    -0.003
     200.95     0.014
     201.98     0.076
     203.01    -0.000
     204.04    -0.026
     205.07     0.019
     206.10     0.018
     207.13     0.008
     208.16     0.073
     209.19    -0.093
     210.22     0.019
     211.25    -0.083
     212.28     0.086
     213.31    -0.006
     214.34     0.086
     215.37    -0.123
     216.41     0.090
     217.44     0.047
     218.47     0.049
     219.50    -0.009
     220.53     0.026
     221.56    -0.061
     222.59     0.029
     223.62    -0.077
     224.65     0.019
     225.68    -0.172
     226.71     0.120
     227.74    -0.128
     228.77     0.194
     229.80     0.007
     230.83    -0.020
     231.86    -0.084
     232.89     0.018
     233.92     0.012
     234.95    -0.079
     235.98    -0.054
     237.02    -0.188
     238.05    -0.149
     239.08    -0.111
     240.11     0.062
     241.14    -0.062
     242.17    -0.033
     243.20     0.026
     244.23    -0.051
     245.26     0.136
     246.29    -0.054
     247.32     0.040
     248.35    -0.129
     249.38     0.098
     250.41     0.097
     251.44     0.012
     252.47    -0.058
     253.50     0.018
     254.53     0.058
     255.56     0.088
     256.59     0.037
     257.63    -0.042
     258.66    -0.150
     259.69     0.079
     260.72    -0.081
     261.75     0.032
     262.78    -0.034
     263.81     0.087
     264.84    -0.086
     265.87     0.058
     266.90    -0.065
     267.93     0.008
     268.96     0.024
     269.99     0.032
     271.02     0.097
     272.05     0.045
     273.08    -0.017
     274.11     0.024
     275.14    -0.083
     276.17    -0.044
     277.21     0.002
     278.24    -0.014
     279.27    -0.155
     280.30    -0.087
     281.33     0.037
     282.36     0.043
     283.39    -0.020
     284.42     0.039
     285.45    -0.025
     286.48     0.104
     287.51    -0.006
     288.54     0.220
     289.57    -0.089
     290.60    -0.030
     291.63     0.042
     292.66    -0.050
     293.69    -0.103
     294.72     0.097
     295.75    -0.072
     296.78     0.059
     297.82     0.047
     298.85     0.077
     299.88    -0.065
     300.91     0.113
     301.94    -0.003
     302.97    -0.053
     304.00     0.035
     305.03     0.071
     306.06    -0.150
     307.09     0.148
     308.12     0.119
     309.15    -0.090
     310.18    -0.059
     311.21    -0.014
     312.24    -0.075
     313.27     0.012
     314.30    -0.049
     315.33    -0.070
     316.36    -0.013
     317.39    -0.005
     318.43    -0.021
     319.46     0.032
     320.49    -0.165
     321.52    -0.041
     322.55     0.104
     323.58     0.032
     324.61     0.093
     325.64     0.008
     326.67    -0.141
     327.70     0.169
     328.73    -0.026
     329.76     0.066
     330.79    -0.002
     331.82     0.170
     332.85     0.011
     333.88     0.101
     334.91    -0.065
     335.94    -0.010
     336.97    -0.092
     338.00     0.013
     339.04    -0.121
     340.07     0.028
     341.10     0.056
     342.13    -0.086
     343.16    -0.143
     344.19    -0.069
     345.22     0.020
     346.25    -0.005
     347.28    -0.030
     348.31     0.088
     349.34     0.008
     350.37    -0.016
     351.40    -0.011
     352.43     0.125
     353.46     0.070
     354.49     0.203
     355.52    -0.193
     356.55     0.135
     357.58    -0.079
     358.61    -0.156
     359.65    -0.095
     360.68     0.006
     361.71     0.023
     362.74     0.088
     363.77     0.036
     364.80    -0.043
     365.83     0.149
     366.86    -0.073
     367.89     0.026
     368.92    -0.015
     369.95    -0.134
     370.98    -0.069
     372.01     0.109
     373.04     0.015
     374.07    -0.207
     375.10     0.180
     376.13     0.071
     377.16     0.085
     378.19    -0.011
     379.22    -0.047
     380.26    -0.054
     381.29     0.004
     382.32     0.080
     383.35     0.155
     384.38     0.030
     385.41     0.057
     386.44     0.034
     387.47    -0.016
     388.50    -0.013
     389.53     0.107
     390.56     0.025
     391.59    -0.010
     392.62     0.030
     393.65     0.153
     394.68     0.110
     395.71     0.020
     396.74     0.034
     397.77     0.031
     398.80     0.091
     399.83     0.110
