%%            108.00000             5.00000    0             0.12700
% LAB  survey ------------------
% wanted position:  l, b, RA, DEC, and interpolated  NH
%108.00 ;   5.00 ; 337.47 ;  63.69 ;  0.588E+22
% nearest position: l, b, RA, DEC, and observed NH
%108.00 ;   5.00 ; 337.47 ;  63.69 ;  0.588E+22
% GASS III survey --------------
% NH - median within 6 arcmin radius   0.00    
% NH - mean within specified beam      0.00    
% EBHIS survey -----------------
% NH  within specified beam           0.588E+22
%%EBHIS   621  datapoints: v_lsr [km/s] and T_B [K]
    -399.25    -0.009
    -397.96    -0.036
    -396.68    -0.008
    -395.39    -0.007
    -394.10    -0.015
    -392.81    -0.052
    -391.52     0.013
    -390.23     0.034
    -388.95    -0.019
    -387.66     0.011
    -386.37     0.003
    -385.08     0.086
    -383.79     0.005
    -382.50     0.054
    -381.22     0.138
    -379.93     0.103
    -378.64    -0.128
    -377.35    -0.021
    -376.06     0.013
    -374.78     0.073
    -373.49     0.059
    -372.20     0.071
    -370.91    -0.058
    -369.62    -0.024
    -368.33    -0.136
    -367.05    -0.101
    -365.76    -0.020
    -364.47    -0.118
    -363.18    -0.043
    -361.89     0.036
    -360.60    -0.005
    -359.32    -0.054
    -358.03    -0.039
    -356.74     0.027
    -355.45     0.036
    -354.16     0.044
    -352.88    -0.007
    -351.59    -0.082
    -350.30     0.013
    -349.01    -0.039
    -347.72    -0.092
    -346.43    -0.023
    -345.15     0.104
    -343.86     0.055
    -342.57     0.057
    -341.28    -0.052
    -339.99     0.019
    -338.70    -0.047
    -337.42     0.042
    -336.13    -0.038
    -334.84     0.005
    -333.55     0.038
    -332.26    -0.122
    -330.98    -0.129
    -329.69     0.013
    -328.40    -0.014
    -327.11    -0.029
    -325.82    -0.053
    -324.53     0.005
    -323.25     0.051
    -321.96     0.010
    -320.67    -0.004
    -319.38    -0.060
    -318.09    -0.062
    -316.80    -0.168
    -315.52    -0.059
    -314.23    -0.033
    -312.94     0.037
    -311.65     0.030
    -310.36     0.012
    -309.08     0.096
    -307.79    -0.001
    -306.50     0.025
    -305.21     0.043
    -303.92    -0.064
    -302.63    -0.036
    -301.35     0.054
    -300.06     0.068
    -298.77    -0.024
    -297.48     0.024
    -296.19     0.022
    -294.90     0.021
    -293.62    -0.043
    -292.33    -0.032
    -291.04    -0.054
    -289.75    -0.067
    -288.46    -0.028
    -287.18    -0.082
    -285.89    -0.034
    -284.60     0.025
    -283.31    -0.137
    -282.02    -0.113
    -280.73    -0.013
    -279.45    -0.065
    -278.16    -0.087
    -276.87    -0.037
    -275.58     0.024
    -274.29    -0.025
    -273.00    -0.044
    -271.72    -0.015
    -270.43     0.055
    -269.14     0.054
    -267.85     0.001
    -266.56    -0.072
    -265.28    -0.082
    -263.99     0.046
    -262.70     0.088
    -261.41    -0.019
    -260.12    -0.014
    -258.83    -0.011
    -257.55    -0.010
    -256.26     0.005
    -254.97     0.083
    -253.68     0.127
    -252.39     0.075
    -251.10     0.041
    -249.82    -0.033
    -248.53    -0.018
    -247.24     0.057
    -245.95     0.009
    -244.66     0.092
    -243.38     0.035
    -242.09     0.095
    -240.80     0.025
    -239.51    -0.117
    -238.22    -0.033
    -236.93     0.005
    -235.65     0.036
    -234.36     0.056
    -233.07     0.053
    -231.78    -0.044
    -230.49     0.001
    -229.20     0.028
    -227.92    -0.042
    -226.63    -0.012
    -225.34    -0.002
    -224.05    -0.001
    -222.76     0.078
    -221.48    -0.002
    -220.19    -0.101
    -218.90     0.035
    -217.61     0.021
    -216.32     0.024
    -215.03     0.049
    -213.75    -0.058
    -212.46    -0.024
    -211.17     0.016
    -209.88    -0.014
    -208.59    -0.003
    -207.30    -0.011
    -206.02    -0.026
    -204.73    -0.006
    -203.44     0.049
    -202.15     0.051
    -200.86     0.081
    -199.58    -0.037
    -198.29    -0.042
    -197.00     0.059
    -195.71     0.083
    -194.42     0.063
    -193.13    -0.037
    -191.85     0.076
    -190.56     0.020
    -189.27    -0.062
    -187.98    -0.033
    -186.69    -0.052
    -185.40     0.043
    -184.12     0.104
    -182.83     0.012
    -181.54    -0.096
    -180.25     0.057
    -178.96     0.030
    -177.68     0.042
    -176.39     0.058
    -175.10     0.033
    -173.81    -0.040
    -172.52     0.035
    -171.23     0.081
    -169.95    -0.055
    -168.66    -0.028
    -167.37     0.007
    -166.08     0.034
    -164.79     0.076
    -163.50    -0.023
    -162.22    -0.004
    -160.93    -0.026
    -159.64     0.101
    -158.35     0.086
    -157.06     0.080
    -155.78     0.129
    -154.49     0.058
    -153.20     0.062
    -151.91     0.060
    -150.62     0.044
    -149.33     0.196
    -148.05     0.197
    -146.76     0.213
    -145.47     0.201
    -144.18     0.275
    -142.89     0.374
    -141.60     0.550
    -140.32     0.639
    -139.03     0.954
    -137.74     1.234
    -136.45     1.294
    -135.16     1.129
    -133.88     1.047
    -132.59     1.153
    -131.30     1.229
    -130.01     1.350
    -128.72     2.096
    -127.43     2.265
    -126.15     1.804
    -124.86     2.226
    -123.57     2.720
    -122.28     3.267
    -120.99     3.698
    -119.70     4.087
    -118.42     4.462
    -117.13     4.636
    -115.84     4.816
    -114.55     4.943
    -113.26     5.368
    -111.98     5.835
    -110.69     6.603
    -109.40     7.788
    -108.11     9.071
    -106.82    10.423
    -105.53    11.390
    -104.25    11.935
    -102.96    12.298
    -101.67    12.392
    -100.38    11.336
     -99.09     9.436
     -97.80     7.793
     -96.52     6.856
     -95.23     6.559
     -93.94     6.668
     -92.65     7.044
     -91.36     7.224
     -90.08     7.548
     -88.79     8.106
     -87.50     9.478
     -86.21    11.334
     -84.92    13.959
     -83.63    16.728
     -82.35    19.194
     -81.06    22.908
     -79.77    27.706
     -78.48    31.794
     -77.19    32.573
     -75.90    30.545
     -74.62    29.516
     -73.33    30.606
     -72.04    32.436
     -70.75    31.481
     -69.46    29.885
     -68.18    28.053
     -66.89    26.754
     -65.60    25.220
     -64.31    22.312
     -63.02    19.585
     -61.73    16.800
     -60.45    14.511
     -59.16    13.079
     -57.87    12.938
     -56.58    13.996
     -55.29    16.914
     -54.00    21.849
     -52.72    26.692
     -51.43    28.803
     -50.14    28.262
     -48.85    26.261
     -47.56    22.841
     -46.28    18.996
     -44.99    16.334
     -43.70    15.458
     -42.41    15.421
     -41.12    15.729
     -39.83    16.083
     -38.55    15.994
     -37.26    16.052
     -35.97    15.666
     -34.68    14.906
     -33.39    14.026
     -32.10    13.361
     -30.82    13.820
     -29.53    14.450
     -28.24    14.938
     -26.95    14.441
     -25.66    14.169
     -24.38    14.442
     -23.09    15.462
     -21.80    16.344
     -20.51    17.574
     -19.22    18.847
     -17.93    21.708
     -16.65    27.513
     -15.36    38.241
     -14.07    53.133
     -12.78    65.425
     -11.49    70.571
     -10.20    72.817
      -8.92    74.766
      -7.63    76.686
      -6.34    79.203
      -5.05    80.515
      -3.76    79.089
      -2.48    74.349
      -1.19    68.476
       0.10    63.847
       1.39    58.961
       2.68    53.689
       3.97    48.137
       5.25    38.660
       6.54    25.371
       7.83    12.557
       9.12     5.784
      10.41     3.353
      11.70     2.009
      12.98     1.392
      14.27     1.043
      15.56     0.706
      16.85     0.606
      18.14     0.349
      19.42     0.308
      20.71     0.280
      22.00     0.167
      23.29     0.147
      24.58     0.122
      25.87     0.070
      27.15     0.118
      28.44     0.299
      29.73     0.157
      31.02     0.124
      32.31     0.065
      33.60    -0.052
      34.88    -0.072
      36.17     0.061
      37.46    -0.031
      38.75     0.009
      40.04     0.053
      41.32     0.079
      42.61     0.077
      43.90     0.083
      45.19     0.032
      46.48     0.039
      47.77     0.045
      49.05    -0.008
      50.34     0.073
      51.63     0.035
      52.92    -0.085
      54.21    -0.091
      55.50    -0.002
      56.78    -0.032
      58.07     0.013
      59.36    -0.095
      60.65     0.022
      61.94     0.034
      63.22     0.086
      64.51     0.028
      65.80     0.045
      67.09    -0.050
      68.38     0.008
      69.67     0.078
      70.95    -0.005
      72.24     0.008
      73.53    -0.051
      74.82     0.000
      76.11     0.038
      77.40     0.038
      78.68     0.056
      79.97     0.082
      81.26     0.046
      82.55    -0.021
      83.84    -0.122
      85.12    -0.022
      86.41     0.101
      87.70    -0.007
      88.99     0.024
      90.28     0.038
      91.57     0.043
      92.85    -0.058
      94.14    -0.089
      95.43    -0.045
      96.72    -0.012
      98.01     0.022
      99.30    -0.011
     100.58     0.077
     101.87     0.022
     103.16     0.095
     104.45     0.082
     105.74     0.000
     107.02    -0.077
     108.31    -0.036
     109.60     0.094
     110.89     0.039
     112.18    -0.068
     113.47    -0.064
     114.75    -0.001
     116.04     0.076
     117.33     0.002
     118.62    -0.014
     119.91    -0.023
     121.20     0.059
     122.48    -0.021
     123.77     0.052
     125.06     0.044
     126.35     0.010
     127.64     0.005
     128.92    -0.022
     130.21     0.039
     131.50    -0.068
     132.79     0.018
     134.08    -0.078
     135.37    -0.077
     136.65    -0.035
     137.94    -0.013
     139.23     0.040
     140.52     0.020
     141.81    -0.163
     143.09    -0.129
     144.38    -0.130
     145.67     0.052
     146.96    -0.029
     148.25    -0.016
     149.54    -0.017
     150.82    -0.039
     152.11    -0.065
     153.40    -0.131
     154.69    -0.058
     155.98    -0.039
     157.27     0.001
     158.55     0.053
     159.84     0.047
     161.13     0.001
     162.42    -0.092
     163.71    -0.055
     164.99     0.150
     166.28     0.107
     167.57     0.089
     168.86     0.011
     170.15     0.028
     171.44    -0.020
     172.72     0.062
     174.01    -0.006
     175.30     0.056
     176.59     0.072
     177.88    -0.020
     179.17    -0.135
     180.45    -0.009
     181.74     0.028
     183.03     0.012
     184.32    -0.011
     185.61     0.013
     186.89    -0.051
     188.18     0.026
     189.47     0.036
     190.76     0.065
     192.05     0.040
     193.34    -0.017
     194.62    -0.147
     195.91     0.037
     197.20    -0.055
     198.49     0.038
     199.78     0.081
     201.07    -0.012
     202.35     0.022
     203.64    -0.037
     204.93    -0.015
     206.22    -0.107
     207.51    -0.038
     208.79    -0.036
     210.08    -0.044
     211.37     0.063
     212.66    -0.024
     213.95    -0.008
     215.24     0.022
     216.52     0.062
     217.81     0.049
     219.10    -0.054
     220.39     0.075
     221.68     0.037
     222.97     0.010
     224.25     0.051
     225.54    -0.001
     226.83     0.023
     228.12    -0.009
     229.41    -0.001
     230.69    -0.020
     231.98     0.092
     233.27     0.062
     234.56    -0.075
     235.85    -0.102
     237.14    -0.003
     238.42     0.065
     239.71     0.034
     241.00     0.076
     242.29     0.062
     243.58    -0.073
     244.87    -0.047
     246.15    -0.019
     247.44     0.088
     248.73    -0.053
     250.02    -0.011
     251.31    -0.003
     252.59    -0.041
     253.88     0.030
     255.17     0.048
     256.46    -0.094
     257.75    -0.066
     259.04     0.021
     260.32     0.020
     261.61     0.047
     262.90    -0.012
     264.19    -0.006
     265.48     0.001
     266.77    -0.110
     268.05    -0.044
     269.34     0.023
     270.63    -0.049
     271.92    -0.067
     273.21    -0.047
     274.49    -0.051
     275.78     0.030
     277.07     0.034
     278.36    -0.006
     279.65    -0.053
     280.94    -0.092
     282.22    -0.016
     283.51    -0.031
     284.80     0.050
     286.09     0.037
     287.38    -0.002
     288.67    -0.097
     289.95    -0.066
     291.24    -0.028
     292.53     0.016
     293.82     0.008
     295.11    -0.062
     296.39    -0.018
     297.68     0.021
     298.97     0.103
     300.26     0.100
     301.55    -0.102
     302.84    -0.051
     304.12     0.106
     305.41     0.001
     306.70    -0.076
     307.99     0.042
     309.28     0.064
     310.57     0.028
     311.85     0.042
     313.14     0.009
     314.43     0.001
     315.72     0.116
     317.01     0.084
     318.29     0.093
     319.58     0.064
     320.87     0.080
     322.16     0.150
     323.45    -0.006
     324.74     0.048
     326.02     0.055
     327.31    -0.038
     328.60     0.021
     329.89     0.004
     331.18     0.011
     332.47     0.055
     333.75     0.022
     335.04    -0.028
     336.33    -0.088
     337.62    -0.044
     338.91    -0.054
     340.19    -0.001
     341.48    -0.060
     342.77     0.071
     344.06    -0.035
     345.35     0.028
     346.64     0.015
     347.92    -0.123
     349.21    -0.078
     350.50    -0.026
     351.79     0.032
     353.08     0.072
     354.37     0.037
     355.65     0.006
     356.94     0.077
     358.23     0.078
     359.52     0.004
     360.81     0.003
     362.09    -0.070
     363.38     0.040
     364.67    -0.016
     365.96     0.037
     367.25    -0.020
     368.54    -0.086
     369.82     0.068
     371.11     0.064
     372.40     0.016
     373.69    -0.021
     374.98     0.034
     376.27     0.056
     377.55     0.057
     378.84     0.018
     380.13     0.005
     381.42    -0.099
     382.71    -0.050
     383.99     0.025
     385.28     0.070
     386.57     0.069
     387.86     0.013
     389.15    -0.043
     390.44    -0.051
     391.72    -0.034
     393.01    -0.059
     394.30    -0.009
     395.59     0.042
     396.88     0.044
     398.17    -0.035
     399.45     0.026
%%GASS      0  datapoints: v_lsr [km/s] and T_B [K] for beam weighted average and median within 6 arcmin
%%LAB     777  datapoints: v_lsr [km/s] and T_B [K]
    -399.86     0.053
    -398.83    -0.030
    -397.80    -0.009
    -396.77    -0.078
    -395.74     0.106
    -394.71    -0.173
    -393.68    -0.002
    -392.65    -0.074
    -391.62    -0.071
    -390.59    -0.040
    -389.56     0.004
    -388.53     0.024
    -387.50    -0.005
    -386.47    -0.031
    -385.44     0.073
    -384.40    -0.038
    -383.37    -0.022
    -382.34    -0.128
    -381.31     0.114
    -380.28    -0.092
    -379.25     0.009
    -378.22     0.045
    -377.19     0.077
    -376.16     0.108
    -375.13    -0.002
    -374.10    -0.061
    -373.07     0.030
    -372.04     0.107
    -371.01     0.004
    -369.98    -0.043
    -368.95     0.102
    -367.92    -0.037
    -366.89    -0.052
    -365.85     0.005
    -364.82     0.204
    -363.79     0.042
    -362.76    -0.035
    -361.73    -0.048
    -360.70     0.133
    -359.67     0.034
    -358.64    -0.024
    -357.61     0.014
    -356.58    -0.016
    -355.55    -0.119
    -354.52     0.065
    -353.49     0.081
    -352.46     0.000
    -351.43    -0.074
    -350.40     0.035
    -349.37    -0.056
    -348.33     0.030
    -347.30    -0.032
    -346.27     0.000
    -345.24     0.139
    -344.21     0.109
    -343.18    -0.021
    -342.15     0.163
    -341.12     0.063
    -340.09     0.009
    -339.06     0.025
    -338.03     0.122
    -337.00     0.219
    -335.97     0.181
    -334.94    -0.021
    -333.91     0.148
    -332.88     0.096
    -331.85     0.020
    -330.81     0.037
    -329.78     0.068
    -328.75    -0.010
    -327.72    -0.066
    -326.69    -0.105
    -325.66    -0.082
    -324.63    -0.073
    -323.60    -0.063
    -322.57     0.097
    -321.54     0.019
    -320.51    -0.053
    -319.48     0.220
    -318.45    -0.069
    -317.42     0.006
    -316.39    -0.025
    -315.36     0.150
    -314.33     0.118
    -313.30     0.206
    -312.26    -0.047
    -311.23     0.006
    -310.20    -0.181
    -309.17    -0.006
    -308.14     0.057
    -307.11    -0.024
    -306.08     0.119
    -305.05    -0.108
    -304.02    -0.046
    -302.99     0.081
    -301.96     0.132
    -300.93     0.109
    -299.90     0.010
    -298.87     0.067
    -297.84     0.066
    -296.81     0.036
    -295.78    -0.148
    -294.74     0.124
    -293.71     0.067
    -292.68     0.014
    -291.65    -0.072
    -290.62    -0.032
    -289.59    -0.110
    -288.56    -0.143
    -287.53    -0.009
    -286.50     0.158
    -285.47     0.077
    -284.44    -0.138
    -283.41    -0.069
    -282.38     0.169
    -281.35    -0.002
    -280.32    -0.076
    -279.29    -0.099
    -278.26    -0.021
    -277.22    -0.050
    -276.19    -0.067
    -275.16    -0.011
    -274.13     0.003
    -273.10    -0.016
    -272.07    -0.022
    -271.04     0.024
    -270.01    -0.033
    -268.98    -0.037
    -267.95    -0.024
    -266.92     0.086
    -265.89     0.092
    -264.86     0.026
    -263.83    -0.094
    -262.80     0.021
    -261.77    -0.027
    -260.74     0.117
    -259.71     0.034
    -258.67     0.031
    -257.64     0.147
    -256.61     0.025
    -255.58     0.060
    -254.55    -0.092
    -253.52    -0.091
    -252.49     0.037
    -251.46    -0.053
    -250.43     0.072
    -249.40    -0.017
    -248.37    -0.016
    -247.34     0.000
    -246.31    -0.036
    -245.28     0.080
    -244.25    -0.112
    -243.22    -0.028
    -242.19    -0.007
    -241.15     0.207
    -240.12     0.065
    -239.09     0.035
    -238.06     0.103
    -237.03    -0.097
    -236.00     0.031
    -234.97     0.088
    -233.94     0.047
    -232.91    -0.056
    -231.88     0.098
    -230.85    -0.062
    -229.82    -0.149
    -228.79    -0.031
    -227.76    -0.069
    -226.73    -0.019
    -225.70     0.063
    -224.67     0.114
    -223.63    -0.048
    -222.60     0.041
    -221.57    -0.153
    -220.54    -0.035
    -219.51    -0.015
    -218.48    -0.040
    -217.45     0.112
    -216.42     0.092
    -215.39    -0.084
    -214.36    -0.057
    -213.33    -0.009
    -212.30     0.025
    -211.27     0.021
    -210.24    -0.020
    -209.21    -0.041
    -208.18    -0.077
    -207.15     0.000
    -206.12    -0.020
    -205.08     0.034
    -204.05     0.037
    -203.02    -0.019
    -201.99     0.055
    -200.96    -0.110
    -199.93     0.114
    -198.90    -0.009
    -197.87    -0.051
    -196.84    -0.155
    -195.81     0.174
    -194.78    -0.092
    -193.75    -0.176
    -192.72     0.034
    -191.69     0.022
    -190.66    -0.241
    -189.63     0.019
    -188.60    -0.218
    -187.56    -0.149
    -186.53    -0.051
    -185.50     0.031
    -184.47     0.084
    -183.44     0.101
    -182.41     0.063
    -181.38     0.096
    -180.35    -0.140
    -179.32     0.029
    -178.29     0.070
    -177.26     0.086
    -176.23    -0.017
    -175.20     0.073
    -174.17     0.032
    -173.14     0.174
    -172.11     0.180
    -171.08     0.142
    -170.05    -0.026
    -169.01     0.037
    -167.98     0.010
    -166.95     0.016
    -165.92     0.017
    -164.89     0.075
    -163.86     0.051
    -162.83    -0.024
    -161.80     0.006
    -160.77     0.006
    -159.74     0.067
    -158.71     0.011
    -157.68    -0.136
    -156.65    -0.092
    -155.62    -0.015
    -154.59     0.016
    -153.56    -0.050
    -152.53     0.017
    -151.49     0.083
    -150.46     0.202
    -149.43     0.210
    -148.40     0.207
    -147.37     0.137
    -146.34     0.219
    -145.31     0.339
    -144.28     0.369
    -143.25     0.406
    -142.22     0.577
    -141.19     0.546
    -140.16     0.718
    -139.13     0.889
    -138.10     1.145
    -137.07     1.208
    -136.04     1.268
    -135.01     1.332
    -133.97     1.331
    -132.94     1.126
    -131.91     1.264
    -130.88     1.218
    -129.85     1.434
    -128.82     1.507
    -127.79     1.728
    -126.76     1.872
    -125.73     2.124
    -124.70     2.646
    -123.67     3.254
    -122.64     3.983
    -121.61     4.571
    -120.58     5.103
    -119.55     5.529
    -118.52     5.892
    -117.49     6.344
    -116.46     6.166
    -115.42     6.555
    -114.39     6.439
    -113.36     6.451
    -112.33     6.764
    -111.30     7.302
    -110.27     7.807
    -109.24     8.901
    -108.21     9.602
    -107.18    10.310
    -106.15    11.535
    -105.12    12.353
    -104.09    13.275
    -103.06    14.003
    -102.03    13.874
    -101.00    13.554
     -99.97    11.793
     -98.94     9.756
     -97.90     7.622
     -96.87     6.482
     -95.84     5.977
     -94.81     5.777
     -93.78     5.828
     -92.75     5.941
     -91.72     6.035
     -90.69     6.581
     -89.66     7.139
     -88.63     8.256
     -87.60     9.513
     -86.57    11.672
     -85.54    13.872
     -84.51    16.411
     -83.48    18.325
     -82.45    20.001
     -81.42    21.387
     -80.38    23.541
     -79.35    26.230
     -78.32    29.285
     -77.29    32.089
     -76.26    32.824
     -75.23    31.622
     -74.20    31.263
     -73.17    31.946
     -72.14    32.912
     -71.11    32.405
     -70.08    31.297
     -69.05    29.605
     -68.02    27.724
     -66.99    26.074
     -65.96    24.191
     -64.93    21.847
     -63.90    19.774
     -62.87    17.937
     -61.83    16.020
     -60.80    14.419
     -59.77    13.430
     -58.74    12.735
     -57.71    13.023
     -56.68    13.851
     -55.65    15.786
     -54.62    18.304
     -53.59    21.463
     -52.56    24.198
     -51.53    26.070
     -50.50    26.487
     -49.47    26.306
     -48.44    24.836
     -47.41    23.036
     -46.38    20.921
     -45.35    18.420
     -44.31    16.948
     -43.28    16.444
     -42.25    16.051
     -41.22    15.605
     -40.19    15.758
     -39.16    15.691
     -38.13    15.749
     -37.10    15.606
     -36.07    15.281
     -35.04    15.128
     -34.01    14.231
     -32.98    14.488
     -31.95    13.910
     -30.92    13.592
     -29.89    13.491
     -28.86    13.354
     -27.83    13.103
     -26.79    12.974
     -25.76    13.082
     -24.73    13.507
     -23.70    14.264
     -22.67    15.343
     -21.64    16.217
     -20.61    17.265
     -19.58    18.344
     -18.55    20.389
     -17.52    23.144
     -16.49    27.983
     -15.46    36.336
     -14.43    46.754
     -13.40    57.977
     -12.37    66.276
     -11.34    70.980
     -10.31    74.513
      -9.28    76.826
      -8.24    78.430
      -7.21    79.713
      -6.18    80.691
      -5.15    81.049
      -4.12    78.733
      -3.09    73.920
      -2.06    69.757
      -1.03    65.893
       0.00    63.644
       1.03    60.454
       2.06    56.591
       3.09    52.887
       4.12    47.026
       5.15    39.310
       6.18    29.376
       7.21    19.029
       8.24     9.935
       9.28     4.991
      10.31     2.875
      11.34     1.938
      12.37     1.449
      13.40     0.941
      14.43     0.723
      15.46     0.479
      16.49     0.525
      17.52     0.394
      18.55     0.341
      19.58     0.490
      20.61     0.246
      21.64     0.017
      22.67     0.277
      23.70     0.185
      24.73     0.008
      25.76     0.142
      26.79     0.248
      27.83     0.035
      28.86    -0.038
      29.89     0.122
      30.92     0.094
      31.95    -0.022
      32.98     0.194
      34.01     0.012
      35.04    -0.036
      36.07    -0.077
      37.10    -0.099
      38.13    -0.020
      39.16     0.021
      40.19     0.046
      41.22    -0.021
      42.25     0.073
      43.28     0.121
      44.31     0.051
      45.35     0.101
      46.38     0.071
      47.41    -0.006
      48.44    -0.081
      49.47     0.210
      50.50     0.086
      51.53     0.096
      52.56     0.020
      53.59     0.098
      54.62    -0.026
      55.65    -0.130
      56.68    -0.030
      57.71     0.065
      58.74     0.034
      59.77     0.117
      60.80     0.047
      61.83    -0.016
      62.87     0.004
      63.90    -0.024
      64.93     0.030
      65.96    -0.062
      66.99    -0.249
      68.02    -0.036
      69.05     0.080
      70.08    -0.102
      71.11     0.017
      72.14    -0.001
      73.17     0.083
      74.20    -0.030
      75.23     0.101
      76.26     0.127
      77.29    -0.038
      78.32    -0.024
      79.35     0.072
      80.38     0.169
      81.42     0.008
      82.45    -0.031
      83.48     0.046
      84.51     0.128
      85.54     0.046
      86.57     0.045
      87.60     0.148
      88.63     0.035
      89.66    -0.016
      90.69    -0.170
      91.72     0.135
      92.75     0.021
      93.78    -0.061
      94.81     0.108
      95.84    -0.104
      96.87     0.032
      97.90     0.077
      98.94    -0.021
      99.97     0.070
     101.00     0.086
     102.03    -0.022
     103.06     0.102
     104.09    -0.011
     105.12    -0.053
     106.15     0.077
     107.18    -0.134
     108.21     0.055
     109.24     0.021
     110.27     0.026
     111.30     0.060
     112.33    -0.052
     113.36     0.030
     114.39     0.041
     115.42     0.039
     116.46    -0.058
     117.49     0.099
     118.52    -0.024
     119.55     0.194
     120.58     0.027
     121.61    -0.030
     122.64     0.061
     123.67    -0.047
     124.70    -0.027
     125.73     0.116
     126.76    -0.019
     127.79    -0.007
     128.82    -0.100
     129.85    -0.047
     130.88     0.011
     131.91    -0.022
     132.94     0.030
     133.97    -0.004
     135.01    -0.025
     136.04     0.032
     137.07    -0.030
     138.10    -0.012
     139.13     0.025
     140.16    -0.107
     141.19     0.024
     142.22     0.022
     143.25    -0.069
     144.28     0.174
     145.31    -0.014
     146.34     0.058
     147.37     0.000
     148.40     0.022
     149.43     0.047
     150.46    -0.100
     151.49    -0.127
     152.53    -0.139
     153.56     0.024
     154.59     0.005
     155.62     0.072
     156.65     0.183
     157.68    -0.028
     158.71    -0.073
     159.74     0.147
     160.77    -0.004
     161.80    -0.115
     162.83    -0.031
     163.86     0.130
     164.89     0.065
     165.92     0.016
     166.95    -0.079
     167.98    -0.184
     169.01    -0.066
     170.05    -0.138
     171.08     0.055
     172.11    -0.119
     173.14     0.037
     174.17    -0.052
     175.20    -0.035
     176.23     0.122
     177.26     0.155
     178.29    -0.086
     179.32    -0.007
     180.35    -0.145
     181.38     0.067
     182.41    -0.149
     183.44    -0.166
     184.47     0.066
     185.50     0.073
     186.53     0.009
     187.56    -0.145
     188.60     0.098
     189.63     0.072
     190.66    -0.235
     191.69     0.045
     192.72     0.009
     193.75     0.027
     194.78     0.047
     195.81    -0.071
     196.84     0.031
     197.87     0.063
     198.90    -0.004
     199.93     0.048
     200.96    -0.133
     201.99     0.112
     203.02     0.051
     204.05     0.089
     205.08    -0.096
     206.12    -0.281
     207.15    -0.144
     208.18    -0.010
     209.21     0.019
     210.24    -0.056
     211.27     0.261
     212.30     0.081
     213.33    -0.046
     214.36    -0.125
     215.39     0.128
     216.42    -0.022
     217.45    -0.071
     218.48    -0.031
     219.51    -0.033
     220.54     0.135
     221.57     0.067
     222.60     0.021
     223.64     0.014
     224.67     0.139
     225.70    -0.028
     226.73    -0.068
     227.76     0.017
     228.79    -0.088
     229.82     0.122
     230.85     0.011
     231.88    -0.096
     232.91     0.022
     233.94    -0.141
     234.97     0.051
     236.00    -0.025
     237.03     0.057
     238.06    -0.024
     239.09     0.070
     240.12     0.057
     241.15    -0.163
     242.19    -0.040
     243.22    -0.015
     244.25    -0.140
     245.28    -0.033
     246.31    -0.136
     247.34    -0.005
     248.37     0.102
     249.40     0.041
     250.43     0.093
     251.46    -0.037
     252.49     0.027
     253.52     0.021
     254.55     0.087
     255.58     0.070
     256.61     0.040
     257.64    -0.125
     258.67    -0.073
     259.71    -0.017
     260.74     0.012
     261.77     0.129
     262.80    -0.047
     263.83    -0.019
     264.86     0.026
     265.89     0.160
     266.92     0.081
     267.95    -0.132
     268.98     0.078
     270.01     0.113
     271.04    -0.012
     272.07    -0.001
     273.10    -0.119
     274.13     0.036
     275.16    -0.174
     276.19     0.174
     277.22    -0.025
     278.26     0.034
     279.29    -0.006
     280.32     0.103
     281.35    -0.182
     282.38     0.014
     283.41    -0.067
     284.44     0.094
     285.47    -0.026
     286.50     0.012
     287.53     0.107
     288.56     0.072
     289.59     0.072
     290.62    -0.041
     291.65    -0.096
     292.68    -0.051
     293.71    -0.067
     294.74    -0.066
     295.78    -0.069
     296.81     0.106
     297.84    -0.174
     298.87    -0.001
     299.90    -0.072
     300.93    -0.031
     301.96    -0.066
     302.99     0.032
     304.02     0.168
     305.05     0.005
     306.08    -0.100
     307.11     0.083
     308.14     0.077
     309.17     0.021
     310.20    -0.094
     311.23     0.044
     312.26     0.050
     313.30     0.091
     314.33    -0.040
     315.36     0.070
     316.39    -0.055
     317.42     0.056
     318.45    -0.014
     319.48     0.083
     320.51     0.117
     321.54     0.021
     322.57    -0.006
     323.60     0.121
     324.63     0.145
     325.66    -0.068
     326.69    -0.053
     327.72    -0.045
     328.75    -0.040
     329.78    -0.016
     330.81     0.257
     331.85     0.014
     332.88     0.154
     333.91     0.096
     334.94    -0.181
     335.97     0.006
     337.00     0.008
     338.03     0.108
     339.06     0.108
     340.09     0.073
     341.12    -0.124
     342.15    -0.055
     343.18    -0.035
     344.21     0.027
     345.24     0.068
     346.27    -0.011
     347.30     0.056
     348.33    -0.040
     349.37    -0.040
     350.40     0.063
     351.43    -0.041
     352.46     0.232
     353.49    -0.073
     354.52     0.076
     355.55    -0.009
     356.58    -0.011
     357.61    -0.038
     358.64    -0.174
     359.67     0.008
     360.70    -0.174
     361.73    -0.016
     362.76    -0.127
     363.79     0.044
     364.82     0.073
     365.85    -0.103
     366.89    -0.108
     367.92     0.029
     368.95    -0.005
     369.98    -0.025
     371.01     0.134
     372.04    -0.128
     373.07    -0.130
     374.10    -0.159
     375.13     0.036
     376.16    -0.027
     377.19     0.087
     378.22    -0.035
     379.25     0.062
     380.28     0.050
     381.31    -0.038
     382.34    -0.028
     383.37     0.067
     384.40    -0.063
     385.44     0.000
     386.47    -0.091
     387.50     0.068
     388.53    -0.168
     389.56     0.016
     390.59    -0.196
     391.62     0.072
     392.65    -0.073
     393.68    -0.002
     394.71    -0.053
     395.74    -0.153
     396.77    -0.077
     397.80    -0.069
     398.83    -0.091
     399.86     0.112
