%%            108.00000             4.00000    0             0.12700
% LAB  survey ------------------
% wanted position:  l, b, RA, DEC, and interpolated  NH
%108.00 ;   4.00 ; 338.60 ;  62.83 ;  0.717E+22
% nearest position: l, b, RA, DEC, and observed NH
%108.00 ;   4.00 ; 338.60 ;  62.83 ;  0.717E+22
% GASS III survey --------------
% NH - median within 6 arcmin radius   0.00    
% NH - mean within specified beam      0.00    
% EBHIS survey -----------------
% NH  within specified beam           0.710E+22
%%EBHIS   621  datapoints: v_lsr [km/s] and T_B [K]
    -399.25    -0.058
    -397.96    -0.011
    -396.68    -0.071
    -395.39     0.064
    -394.10    -0.012
    -392.81     0.044
    -391.52     0.034
    -390.23     0.058
    -388.95     0.007
    -387.66    -0.008
    -386.37    -0.009
    -385.08     0.060
    -383.79     0.016
    -382.50    -0.035
    -381.22    -0.077
    -379.93    -0.078
    -378.64     0.075
    -377.35     0.127
    -376.06     0.068
    -374.78    -0.020
    -373.49     0.048
    -372.20     0.025
    -370.91     0.008
    -369.62    -0.018
    -368.33    -0.014
    -367.05     0.102
    -365.76    -0.024
    -364.47    -0.075
    -363.18    -0.016
    -361.89    -0.041
    -360.60    -0.068
    -359.32     0.011
    -358.03     0.013
    -356.74    -0.047
    -355.45     0.034
    -354.16    -0.042
    -352.88    -0.068
    -351.59     0.018
    -350.30     0.025
    -349.01     0.061
    -347.72    -0.043
    -346.43    -0.010
    -345.15    -0.014
    -343.86    -0.034
    -342.57     0.077
    -341.28     0.073
    -339.99    -0.061
    -338.70    -0.125
    -337.42    -0.021
    -336.13    -0.051
    -334.84     0.043
    -333.55    -0.015
    -332.26    -0.080
    -330.98     0.011
    -329.69    -0.045
    -328.40     0.086
    -327.11     0.053
    -325.82     0.105
    -324.53    -0.060
    -323.25    -0.029
    -321.96     0.020
    -320.67     0.066
    -319.38     0.021
    -318.09    -0.019
    -316.80     0.063
    -315.52     0.047
    -314.23     0.053
    -312.94    -0.055
    -311.65     0.016
    -310.36    -0.050
    -309.08     0.014
    -307.79    -0.038
    -306.50     0.026
    -305.21     0.062
    -303.92     0.158
    -302.63     0.050
    -301.35     0.051
    -300.06     0.068
    -298.77    -0.055
    -297.48     0.003
    -296.19    -0.044
    -294.90    -0.008
    -293.62    -0.025
    -292.33    -0.042
    -291.04    -0.039
    -289.75     0.026
    -288.46     0.000
    -287.18     0.003
    -285.89    -0.017
    -284.60    -0.042
    -283.31     0.003
    -282.02     0.051
    -280.73     0.014
    -279.45     0.052
    -278.16    -0.017
    -276.87     0.019
    -275.58     0.002
    -274.29    -0.070
    -273.00    -0.026
    -271.72    -0.048
    -270.43    -0.017
    -269.14     0.042
    -267.85     0.044
    -266.56    -0.026
    -265.28     0.044
    -263.99     0.078
    -262.70     0.013
    -261.41     0.042
    -260.12    -0.013
    -258.83     0.054
    -257.55     0.117
    -256.26     0.105
    -254.97     0.024
    -253.68    -0.076
    -252.39     0.016
    -251.10    -0.008
    -249.82    -0.099
    -248.53     0.093
    -247.24     0.129
    -245.95    -0.067
    -244.66     0.049
    -243.38    -0.024
    -242.09    -0.025
    -240.80     0.038
    -239.51    -0.012
    -238.22    -0.063
    -236.93    -0.070
    -235.65    -0.033
    -234.36    -0.022
    -233.07    -0.030
    -231.78    -0.035
    -230.49    -0.038
    -229.20    -0.031
    -227.92     0.009
    -226.63     0.059
    -225.34     0.075
    -224.05    -0.047
    -222.76     0.014
    -221.48     0.074
    -220.19    -0.050
    -218.90     0.102
    -217.61     0.014
    -216.32    -0.078
    -215.03     0.008
    -213.75     0.014
    -212.46    -0.029
    -211.17    -0.027
    -209.88    -0.001
    -208.59     0.010
    -207.30    -0.125
    -206.02     0.015
    -204.73    -0.021
    -203.44    -0.015
    -202.15    -0.079
    -200.86    -0.116
    -199.58    -0.001
    -198.29     0.017
    -197.00     0.055
    -195.71     0.037
    -194.42     0.019
    -193.13     0.045
    -191.85     0.187
    -190.56     0.153
    -189.27    -0.065
    -187.98     0.002
    -186.69    -0.017
    -185.40     0.055
    -184.12    -0.016
    -182.83     0.007
    -181.54     0.035
    -180.25    -0.040
    -178.96    -0.037
    -177.68     0.046
    -176.39     0.045
    -175.10     0.034
    -173.81     0.009
    -172.52     0.044
    -171.23     0.066
    -169.95     0.091
    -168.66     0.036
    -167.37    -0.025
    -166.08     0.019
    -164.79    -0.010
    -163.50    -0.000
    -162.22     0.033
    -160.93    -0.012
    -159.64     0.107
    -158.35     0.109
    -157.06     0.138
    -155.78     0.203
    -154.49     0.270
    -153.20     0.124
    -151.91     0.096
    -150.62     0.243
    -149.33     0.282
    -148.05     0.409
    -146.76     0.528
    -145.47     0.666
    -144.18     0.830
    -142.89     0.941
    -141.60     0.996
    -140.32     0.953
    -139.03     0.981
    -137.74     0.834
    -136.45     0.933
    -135.16     1.044
    -133.88     1.137
    -132.59     1.239
    -131.30     1.365
    -130.01     1.528
    -128.72     1.943
    -127.43     2.436
    -126.15     2.174
    -124.86     2.247
    -123.57     2.726
    -122.28     3.013
    -120.99     3.233
    -119.70     3.413
    -118.42     3.831
    -117.13     4.285
    -115.84     4.790
    -114.55     5.634
    -113.26     6.710
    -111.98     8.134
    -110.69    10.143
    -109.40    12.209
    -108.11    13.134
    -106.82    12.626
    -105.53    11.520
    -104.25    10.491
    -102.96    10.006
    -101.67    10.374
    -100.38    11.675
     -99.09    12.796
     -97.80    12.291
     -96.52    10.574
     -95.23     9.133
     -93.94     8.967
     -92.65    10.892
     -91.36    14.017
     -90.08    16.626
     -88.79    17.409
     -87.50    15.966
     -86.21    14.855
     -84.92    17.239
     -83.63    22.637
     -82.35    27.606
     -81.06    30.578
     -79.77    32.172
     -78.48    34.926
     -77.19    41.528
     -75.90    50.239
     -74.62    58.015
     -73.33    62.380
     -72.04    63.955
     -70.75    59.583
     -69.46    54.319
     -68.18    53.621
     -66.89    56.968
     -65.60    60.060
     -64.31    56.979
     -63.02    47.640
     -61.73    36.461
     -60.45    27.526
     -59.16    22.354
     -57.87    19.732
     -56.58    18.542
     -55.29    17.797
     -54.00    17.644
     -52.72    17.095
     -51.43    17.131
     -50.14    17.505
     -48.85    18.562
     -47.56    18.468
     -46.28    16.010
     -44.99    13.498
     -43.70    12.583
     -42.41    12.814
     -41.12    14.379
     -39.83    17.331
     -38.55    21.425
     -37.26    25.270
     -35.97    26.452
     -34.68    24.422
     -33.39    22.140
     -32.10    20.908
     -30.82    20.898
     -29.53    21.759
     -28.24    23.785
     -26.95    25.496
     -25.66    26.142
     -24.38    25.439
     -23.09    23.917
     -21.80    20.330
     -20.51    15.673
     -19.22    12.749
     -17.93    12.637
     -16.65    14.753
     -15.36    19.776
     -14.07    28.569
     -12.78    41.378
     -11.49    55.923
     -10.20    65.592
      -8.92    64.972
      -7.63    66.571
      -6.34    72.552
      -5.05    75.604
      -3.76    79.000
      -2.48    80.232
      -1.19    75.354
       0.10    68.657
       1.39    62.348
       2.68    57.049
       3.97    53.992
       5.25    52.011
       6.54    46.209
       7.83    32.427
       9.12    18.500
      10.41    11.220
      11.70     7.753
      12.98     5.757
      14.27     4.450
      15.56     3.314
      16.85     2.457
      18.14     1.745
      19.42     1.231
      20.71     1.027
      22.00     0.691
      23.29     0.411
      24.58     0.314
      25.87     0.211
      27.15     0.157
      28.44     0.093
      29.73     0.051
      31.02     0.087
      32.31    -0.057
      33.60     0.054
      34.88     0.022
      36.17     0.022
      37.46     0.017
      38.75     0.048
      40.04     0.131
      41.32    -0.054
      42.61     0.061
      43.90     0.041
      45.19     0.019
      46.48     0.032
      47.77     0.046
      49.05     0.038
      50.34    -0.021
      51.63     0.014
      52.92    -0.017
      54.21    -0.143
      55.50     0.000
      56.78     0.120
      58.07     0.028
      59.36    -0.003
      60.65     0.037
      61.94     0.026
      63.22    -0.076
      64.51    -0.025
      65.80    -0.035
      67.09    -0.096
      68.38    -0.161
      69.67    -0.048
      70.95    -0.011
      72.24    -0.029
      73.53    -0.093
      74.82     0.014
      76.11     0.039
      77.40     0.023
      78.68     0.070
      79.97     0.032
      81.26    -0.038
      82.55     0.004
      83.84     0.009
      85.12     0.049
      86.41     0.006
      87.70     0.013
      88.99    -0.042
      90.28    -0.045
      91.57     0.023
      92.85     0.016
      94.14    -0.029
      95.43    -0.010
      96.72     0.066
      98.01     0.007
      99.30    -0.022
     100.58    -0.066
     101.87    -0.106
     103.16    -0.034
     104.45    -0.029
     105.74    -0.059
     107.02    -0.085
     108.31    -0.048
     109.60     0.021
     110.89     0.070
     112.18     0.025
     113.47    -0.068
     114.75     0.069
     116.04     0.045
     117.33     0.025
     118.62    -0.041
     119.91     0.057
     121.20    -0.007
     122.48    -0.100
     123.77    -0.122
     125.06     0.049
     126.35    -0.034
     127.64     0.085
     128.92     0.089
     130.21    -0.017
     131.50    -0.023
     132.79     0.029
     134.08    -0.024
     135.37    -0.005
     136.65     0.035
     137.94     0.014
     139.23     0.040
     140.52     0.010
     141.81     0.027
     143.09    -0.059
     144.38    -0.074
     145.67     0.051
     146.96     0.036
     148.25     0.070
     149.54    -0.117
     150.82    -0.066
     152.11     0.096
     153.40     0.060
     154.69     0.010
     155.98    -0.077
     157.27    -0.044
     158.55     0.011
     159.84    -0.012
     161.13    -0.022
     162.42    -0.079
     163.71     0.034
     164.99     0.029
     166.28    -0.091
     167.57    -0.001
     168.86    -0.044
     170.15     0.041
     171.44     0.003
     172.72     0.037
     174.01     0.076
     175.30     0.054
     176.59     0.052
     177.88    -0.033
     179.17    -0.003
     180.45    -0.087
     181.74     0.025
     183.03     0.014
     184.32    -0.016
     185.61    -0.117
     186.89    -0.052
     188.18    -0.026
     189.47    -0.045
     190.76    -0.034
     192.05     0.034
     193.34     0.015
     194.62     0.065
     195.91    -0.026
     197.20     0.020
     198.49    -0.052
     199.78     0.012
     201.07    -0.045
     202.35    -0.042
     203.64    -0.081
     204.93     0.081
     206.22    -0.003
     207.51     0.076
     208.79     0.021
     210.08     0.005
     211.37    -0.008
     212.66    -0.058
     213.95    -0.026
     215.24    -0.072
     216.52     0.093
     217.81     0.074
     219.10    -0.046
     220.39    -0.029
     221.68    -0.085
     222.97    -0.116
     224.25    -0.044
     225.54    -0.000
     226.83     0.045
     228.12     0.048
     229.41     0.016
     230.69     0.058
     231.98     0.036
     233.27    -0.048
     234.56     0.053
     235.85     0.042
     237.14    -0.016
     238.42    -0.023
     239.71     0.040
     241.00    -0.058
     242.29     0.094
     243.58     0.079
     244.87     0.094
     246.15     0.012
     247.44    -0.061
     248.73    -0.029
     250.02     0.105
     251.31     0.007
     252.59    -0.038
     253.88    -0.023
     255.17     0.020
     256.46    -0.025
     257.75    -0.089
     259.04     0.052
     260.32     0.086
     261.61    -0.067
     262.90    -0.013
     264.19     0.081
     265.48     0.095
     266.77     0.050
     268.05     0.016
     269.34     0.069
     270.63     0.057
     271.92     0.060
     273.21     0.037
     274.49     0.134
     275.78     0.063
     277.07    -0.053
     278.36    -0.014
     279.65    -0.050
     280.94    -0.004
     282.22    -0.052
     283.51    -0.110
     284.80     0.071
     286.09     0.022
     287.38     0.023
     288.67     0.058
     289.95    -0.008
     291.24    -0.005
     292.53     0.062
     293.82     0.045
     295.11     0.095
     296.39     0.078
     297.68     0.013
     298.97     0.054
     300.26     0.026
     301.55    -0.028
     302.84    -0.014
     304.12    -0.011
     305.41    -0.082
     306.70    -0.049
     307.99    -0.041
     309.28    -0.057
     310.57    -0.008
     311.85    -0.080
     313.14    -0.124
     314.43    -0.062
     315.72     0.001
     317.01     0.010
     318.29     0.046
     319.58    -0.023
     320.87    -0.023
     322.16    -0.018
     323.45    -0.042
     324.74     0.046
     326.02     0.009
     327.31     0.110
     328.60     0.033
     329.89     0.022
     331.18     0.005
     332.47    -0.014
     333.75     0.016
     335.04    -0.001
     336.33    -0.111
     337.62    -0.120
     338.91     0.047
     340.19     0.052
     341.48     0.007
     342.77    -0.038
     344.06    -0.048
     345.35     0.020
     346.64     0.002
     347.92    -0.043
     349.21     0.051
     350.50    -0.001
     351.79     0.043
     353.08    -0.013
     354.37    -0.054
     355.65     0.013
     356.94     0.079
     358.23    -0.093
     359.52    -0.078
     360.81     0.003
     362.09     0.026
     363.38    -0.055
     364.67    -0.054
     365.96     0.012
     367.25     0.025
     368.54     0.039
     369.82    -0.048
     371.11    -0.003
     372.40     0.020
     373.69     0.016
     374.98     0.083
     376.27    -0.014
     377.55    -0.019
     378.84     0.120
     380.13    -0.049
     381.42    -0.089
     382.71    -0.086
     383.99     0.067
     385.28    -0.018
     386.57    -0.087
     387.86     0.022
     389.15     0.131
     390.44     0.027
     391.72     0.004
     393.01    -0.085
     394.30    -0.047
     395.59     0.007
     396.88    -0.014
     398.17    -0.053
     399.45    -0.032
%%GASS      0  datapoints: v_lsr [km/s] and T_B [K] for beam weighted average and median within 6 arcmin
%%LAB     777  datapoints: v_lsr [km/s] and T_B [K]
    -399.86     0.011
    -398.83     0.066
    -397.80    -0.024
    -396.77    -0.227
    -395.74     0.037
    -394.71     0.123
    -393.68    -0.005
    -392.65     0.059
    -391.62     0.069
    -390.59    -0.147
    -389.56     0.041
    -388.53     0.034
    -387.50    -0.037
    -386.47     0.030
    -385.44     0.086
    -384.41    -0.072
    -383.38     0.066
    -382.34     0.076
    -381.31    -0.002
    -380.28     0.097
    -379.25     0.061
    -378.22    -0.024
    -377.19    -0.027
    -376.16    -0.023
    -375.13     0.060
    -374.10    -0.057
    -373.07     0.054
    -372.04     0.011
    -371.01    -0.016
    -369.98    -0.038
    -368.95    -0.122
    -367.92     0.044
    -366.89     0.004
    -365.86    -0.137
    -364.82    -0.038
    -363.79    -0.057
    -362.76     0.035
    -361.73     0.118
    -360.70    -0.043
    -359.67    -0.015
    -358.64     0.001
    -357.61    -0.152
    -356.58     0.082
    -355.55     0.114
    -354.52     0.090
    -353.49    -0.070
    -352.46    -0.004
    -351.43     0.044
    -350.40    -0.120
    -349.37    -0.101
    -348.34    -0.026
    -347.30    -0.002
    -346.27    -0.152
    -345.24    -0.007
    -344.21     0.112
    -343.18    -0.161
    -342.15     0.096
    -341.12     0.039
    -340.09     0.062
    -339.06    -0.031
    -338.03     0.030
    -337.00     0.133
    -335.97    -0.031
    -334.94    -0.139
    -333.91    -0.002
    -332.88    -0.035
    -331.85     0.020
    -330.82    -0.030
    -329.79     0.039
    -328.75    -0.104
    -327.72    -0.052
    -326.69     0.065
    -325.66     0.026
    -324.63    -0.041
    -323.60     0.031
    -322.57     0.039
    -321.54    -0.008
    -320.51     0.096
    -319.48    -0.080
    -318.45     0.004
    -317.42     0.036
    -316.39    -0.045
    -315.36     0.060
    -314.33     0.036
    -313.30     0.041
    -312.27     0.066
    -311.23    -0.019
    -310.20     0.126
    -309.17     0.111
    -308.14    -0.052
    -307.11     0.055
    -306.08    -0.218
    -305.05     0.010
    -304.02    -0.003
    -302.99    -0.099
    -301.96    -0.026
    -300.93     0.055
    -299.90    -0.085
    -298.87     0.126
    -297.84    -0.130
    -296.81     0.173
    -295.78     0.223
    -294.75    -0.063
    -293.71     0.024
    -292.68     0.096
    -291.65    -0.020
    -290.62     0.149
    -289.59     0.001
    -288.56     0.079
    -287.53    -0.049
    -286.50     0.237
    -285.47     0.020
    -284.44    -0.019
    -283.41    -0.062
    -282.38    -0.150
    -281.35    -0.111
    -280.32    -0.074
    -279.29     0.009
    -278.26     0.030
    -277.23     0.013
    -276.19     0.147
    -275.16     0.096
    -274.13    -0.032
    -273.10    -0.160
    -272.07    -0.008
    -271.04    -0.112
    -270.01    -0.079
    -268.98     0.047
    -267.95     0.013
    -266.92    -0.045
    -265.89     0.074
    -264.86    -0.035
    -263.83     0.202
    -262.80     0.138
    -261.77     0.202
    -260.74    -0.055
    -259.71     0.212
    -258.68    -0.094
    -257.64     0.037
    -256.61    -0.015
    -255.58     0.193
    -254.55     0.022
    -253.52     0.085
    -252.49     0.036
    -251.46     0.014
    -250.43    -0.062
    -249.40    -0.001
    -248.37    -0.054
    -247.34    -0.048
    -246.31    -0.077
    -245.28     0.086
    -244.25     0.138
    -243.22     0.103
    -242.19     0.028
    -241.16     0.140
    -240.12    -0.044
    -239.09    -0.074
    -238.06    -0.020
    -237.03    -0.097
    -236.00    -0.155
    -234.97     0.043
    -233.94    -0.007
    -232.91     0.074
    -231.88    -0.108
    -230.85     0.009
    -229.82    -0.047
    -228.79    -0.005
    -227.76     0.013
    -226.73    -0.122
    -225.70    -0.256
    -224.67     0.018
    -223.64    -0.029
    -222.60    -0.007
    -221.57    -0.024
    -220.54    -0.041
    -219.51    -0.062
    -218.48     0.048
    -217.45    -0.039
    -216.42     0.051
    -215.39     0.046
    -214.36    -0.023
    -213.33     0.143
    -212.30    -0.082
    -211.27     0.028
    -210.24    -0.020
    -209.21    -0.150
    -208.18    -0.156
    -207.15    -0.132
    -206.12    -0.023
    -205.09    -0.088
    -204.05     0.151
    -203.02     0.085
    -201.99    -0.029
    -200.96    -0.138
    -199.93     0.155
    -198.90    -0.012
    -197.87     0.021
    -196.84     0.014
    -195.81    -0.053
    -194.78    -0.113
    -193.75     0.093
    -192.72    -0.021
    -191.69    -0.072
    -190.66     0.014
    -189.63     0.028
    -188.60     0.029
    -187.57    -0.058
    -186.53     0.031
    -185.50     0.120
    -184.47     0.057
    -183.44     0.035
    -182.41     0.005
    -181.38     0.079
    -180.35     0.187
    -179.32     0.076
    -178.29    -0.012
    -177.26    -0.091
    -176.23    -0.013
    -175.20     0.185
    -174.17    -0.065
    -173.14    -0.031
    -172.11    -0.061
    -171.08     0.180
    -170.05    -0.056
    -169.01     0.031
    -167.98    -0.054
    -166.95     0.051
    -165.92     0.128
    -164.89     0.152
    -163.86     0.103
    -162.83    -0.097
    -161.80    -0.024
    -160.77     0.165
    -159.74     0.116
    -158.71    -0.039
    -157.68     0.077
    -156.65     0.129
    -155.62     0.074
    -154.59    -0.016
    -153.56     0.127
    -152.53     0.089
    -151.49     0.228
    -150.46     0.339
    -149.43     0.258
    -148.40     0.268
    -147.37     0.565
    -146.34     0.470
    -145.31     0.675
    -144.28     0.712
    -143.25     0.831
    -142.22     0.882
    -141.19     0.922
    -140.16     0.859
    -139.13     0.938
    -138.10     0.786
    -137.07     0.696
    -136.04     1.223
    -135.01     0.847
    -133.98     1.205
    -132.94     1.110
    -131.91     1.337
    -130.88     1.421
    -129.85     1.547
    -128.82     1.678
    -127.79     1.882
    -126.76     2.257
    -125.73     2.658
    -124.70     3.265
    -123.67     3.688
    -122.64     3.811
    -121.61     4.066
    -120.58     4.445
    -119.55     4.888
    -118.52     5.013
    -117.49     4.994
    -116.46     4.993
    -115.42     5.339
    -114.39     5.847
    -113.36     6.556
    -112.33     7.622
    -111.30     9.377
    -110.27    12.383
    -109.24    15.528
    -108.21    17.672
    -107.18    18.254
    -106.15    17.733
    -105.12    16.544
    -104.09    15.581
    -103.06    14.247
    -102.03    13.247
    -101.00    12.629
     -99.97    12.608
     -98.94    13.094
     -97.90    12.759
     -96.87    11.488
     -95.84    10.035
     -94.81     9.099
     -93.78     9.075
     -92.75    10.228
     -91.72    11.906
     -90.69    14.253
     -89.66    16.338
     -88.63    17.488
     -87.60    17.335
     -86.57    17.280
     -85.54    17.884
     -84.51    20.430
     -83.48    24.441
     -82.45    29.378
     -81.42    34.583
     -80.39    38.246
     -79.35    40.346
     -78.32    42.082
     -77.29    45.176
     -76.26    49.511
     -75.23    54.003
     -74.20    57.753
     -73.17    60.409
     -72.14    62.326
     -71.11    62.249
     -70.08    59.557
     -69.05    56.543
     -68.02    54.825
     -66.99    55.051
     -65.96    55.710
     -64.93    54.053
     -63.90    50.184
     -62.87    44.338
     -61.83    36.821
     -60.80    30.013
     -59.77    24.540
     -58.74    21.924
     -57.71    20.087
     -56.68    19.095
     -55.65    18.505
     -54.62    17.098
     -53.59    16.717
     -52.56    16.103
     -51.53    15.899
     -50.50    15.072
     -49.47    14.591
     -48.44    14.315
     -47.41    13.677
     -46.38    12.652
     -45.35    11.714
     -44.31    11.581
     -43.28    11.806
     -42.25    12.877
     -41.22    14.537
     -40.19    16.326
     -39.16    18.164
     -38.13    20.235
     -37.10    22.537
     -36.07    24.441
     -35.04    23.986
     -34.01    23.035
     -32.98    21.897
     -31.95    21.668
     -30.92    22.007
     -29.89    22.732
     -28.86    23.577
     -27.83    24.392
     -26.80    25.122
     -25.76    25.084
     -24.73    24.208
     -23.70    22.901
     -22.67    21.146
     -21.64    18.766
     -20.61    16.492
     -19.58    14.916
     -18.55    14.579
     -17.52    15.943
     -16.49    18.689
     -15.46    22.236
     -14.43    28.371
     -13.40    36.438
     -12.37    47.004
     -11.34    58.425
     -10.31    67.331
      -9.28    69.173
      -8.24    69.000
      -7.21    69.708
      -6.18    71.832
      -5.15    71.983
      -4.12    72.471
      -3.09    74.189
      -2.06    73.442
      -1.03    70.079
       0.00    66.406
       1.03    61.849
       2.06    58.849
       3.09    56.753
       4.12    55.658
       5.15    53.198
       6.18    47.524
       7.21    36.947
       8.24    25.002
       9.28    16.243
      10.31    11.673
      11.34     8.811
      12.37     7.148
      13.40     5.662
      14.43     4.543
      15.46     3.430
      16.49     2.895
      17.52     2.251
      18.55     1.794
      19.58     1.115
      20.61     0.830
      21.64     0.627
      22.67     0.633
      23.70     0.389
      24.73     0.181
      25.76     0.170
      26.80     0.166
      27.83    -0.068
      28.86    -0.035
      29.89    -0.011
      30.92    -0.054
      31.95     0.049
      32.98     0.152
      34.01     0.064
      35.04     0.102
      36.07     0.020
      37.10    -0.069
      38.13     0.038
      39.16     0.040
      40.19    -0.121
      41.22     0.023
      42.25     0.002
      43.28     0.054
      44.31    -0.032
      45.35    -0.090
      46.38     0.113
      47.41     0.070
      48.44    -0.173
      49.47     0.044
      50.50     0.038
      51.53    -0.020
      52.56     0.036
      53.59     0.034
      54.62    -0.026
      55.65     0.004
      56.68    -0.007
      57.71    -0.002
      58.74     0.057
      59.77    -0.019
      60.80     0.004
      61.83     0.036
      62.87    -0.056
      63.90     0.030
      64.93    -0.206
      65.96     0.069
      66.99    -0.045
      68.02    -0.107
      69.05    -0.080
      70.08    -0.071
      71.11     0.027
      72.14    -0.079
      73.17     0.097
      74.20     0.071
      75.23     0.010
      76.26     0.121
      77.29     0.016
      78.32    -0.002
      79.35     0.043
      80.39     0.015
      81.42    -0.013
      82.45    -0.008
      83.48     0.044
      84.51    -0.047
      85.54    -0.078
      86.57     0.057
      87.60    -0.070
      88.63     0.011
      89.66    -0.130
      90.69     0.176
      91.72    -0.035
      92.75    -0.087
      93.78     0.156
      94.81     0.070
      95.84     0.053
      96.87     0.131
      97.90    -0.070
      98.94     0.076
      99.97    -0.013
     101.00    -0.085
     102.03    -0.110
     103.06    -0.011
     104.09    -0.005
     105.12     0.045
     106.15     0.012
     107.18     0.215
     108.21     0.028
     109.24     0.116
     110.27    -0.063
     111.30    -0.007
     112.33    -0.061
     113.36    -0.037
     114.39    -0.086
     115.42     0.066
     116.46     0.031
     117.49    -0.018
     118.52     0.035
     119.55     0.021
     120.58    -0.057
     121.61     0.040
     122.64    -0.006
     123.67     0.128
     124.70     0.051
     125.73     0.041
     126.76     0.061
     127.79     0.080
     128.82    -0.043
     129.85     0.065
     130.88    -0.045
     131.91    -0.198
     132.94     0.024
     133.98     0.027
     135.01    -0.078
     136.04     0.176
     137.07     0.015
     138.10     0.170
     139.13    -0.200
     140.16    -0.026
     141.19     0.059
     142.22     0.163
     143.25    -0.070
     144.28     0.010
     145.31     0.191
     146.34     0.113
     147.37     0.023
     148.40     0.064
     149.43    -0.078
     150.46     0.090
     151.49     0.057
     152.53     0.087
     153.56    -0.047
     154.59     0.026
     155.62    -0.078
     156.65    -0.054
     157.68    -0.001
     158.71     0.005
     159.74    -0.018
     160.77     0.193
     161.80     0.027
     162.83    -0.054
     163.86     0.018
     164.89     0.010
     165.92    -0.028
     166.95     0.073
     167.98    -0.044
     169.01     0.099
     170.05    -0.028
     171.08    -0.039
     172.11    -0.076
     173.14     0.132
     174.17    -0.131
     175.20     0.028
     176.23     0.138
     177.26    -0.188
     178.29     0.010
     179.32     0.068
     180.35    -0.120
     181.38     0.065
     182.41     0.112
     183.44     0.004
     184.47    -0.107
     185.50    -0.047
     186.53    -0.121
     187.57     0.019
     188.60    -0.126
     189.63     0.155
     190.66    -0.078
     191.69     0.104
     192.72    -0.074
     193.75     0.002
     194.78     0.029
     195.81    -0.069
     196.84    -0.106
     197.87    -0.032
     198.90    -0.026
     199.93    -0.010
     200.96    -0.043
     201.99     0.052
     203.02     0.095
     204.05    -0.081
     205.09     0.099
     206.12    -0.022
     207.15     0.044
     208.18    -0.011
     209.21    -0.038
     210.24     0.106
     211.27    -0.070
     212.30     0.018
     213.33     0.010
     214.36    -0.056
     215.39    -0.099
     216.42    -0.035
     217.45    -0.171
     218.48     0.094
     219.51     0.103
     220.54    -0.072
     221.57    -0.026
     222.60    -0.076
     223.64     0.007
     224.67     0.036
     225.70    -0.147
     226.73    -0.057
     227.76    -0.065
     228.79    -0.012
     229.82     0.041
     230.85     0.131
     231.88     0.040
     232.91    -0.021
     233.94     0.094
     234.97     0.043
     236.00     0.048
     237.03    -0.057
     238.06    -0.040
     239.09    -0.055
     240.12     0.066
     241.16     0.003
     242.19    -0.047
     243.22     0.140
     244.25    -0.087
     245.28     0.045
     246.31    -0.093
     247.34    -0.006
     248.37    -0.086
     249.40     0.084
     250.43     0.038
     251.46     0.173
     252.49     0.026
     253.52     0.001
     254.55    -0.130
     255.58     0.072
     256.61     0.082
     257.64     0.035
     258.68     0.052
     259.71     0.088
     260.74    -0.105
     261.77    -0.026
     262.80     0.030
     263.83     0.060
     264.86     0.074
     265.89    -0.007
     266.92    -0.131
     267.95     0.055
     268.98    -0.129
     270.01    -0.045
     271.04    -0.122
     272.07    -0.036
     273.10    -0.103
     274.13     0.074
     275.16    -0.098
     276.19     0.053
     277.23     0.024
     278.26     0.080
     279.29     0.054
     280.32    -0.008
     281.35     0.127
     282.38    -0.147
     283.41    -0.060
     284.44     0.011
     285.47     0.088
     286.50     0.013
     287.53     0.007
     288.56     0.079
     289.59    -0.058
     290.62    -0.061
     291.65     0.076
     292.68     0.096
     293.71    -0.113
     294.75     0.028
     295.78     0.066
     296.81    -0.018
     297.84    -0.093
     298.87    -0.098
     299.90    -0.015
     300.93    -0.098
     301.96    -0.064
     302.99    -0.049
     304.02     0.056
     305.05     0.066
     306.08    -0.062
     307.11     0.029
     308.14    -0.006
     309.17     0.084
     310.20     0.043
     311.23     0.118
     312.27     0.094
     313.30     0.102
     314.33    -0.122
     315.36     0.053
     316.39    -0.043
     317.42    -0.071
     318.45    -0.055
     319.48    -0.139
     320.51    -0.021
     321.54    -0.028
     322.57    -0.036
     323.60     0.115
     324.63     0.056
     325.66     0.001
     326.69    -0.083
     327.72     0.077
     328.75    -0.108
     329.79     0.071
     330.82    -0.139
     331.85     0.153
     332.88    -0.083
     333.91     0.039
     334.94    -0.020
     335.97     0.085
     337.00    -0.015
     338.03    -0.076
     339.06    -0.045
     340.09    -0.030
     341.12     0.021
     342.15     0.115
     343.18    -0.055
     344.21     0.029
     345.24     0.070
     346.27    -0.055
     347.30     0.026
     348.34    -0.043
     349.37    -0.145
     350.40    -0.094
     351.43     0.173
     352.46     0.034
     353.49    -0.152
     354.52     0.016
     355.55     0.115
     356.58    -0.097
     357.61    -0.045
     358.64    -0.037
     359.67    -0.189
     360.70    -0.001
     361.73     0.149
     362.76     0.028
     363.79     0.119
     364.82     0.119
     365.86     0.006
     366.89     0.115
     367.92    -0.074
     368.95    -0.065
     369.98     0.090
     371.01     0.071
     372.04    -0.103
     373.07    -0.022
     374.10     0.046
     375.13    -0.247
     376.16     0.147
     377.19     0.088
     378.22    -0.129
     379.25     0.129
     380.28     0.151
     381.31     0.029
     382.34     0.104
     383.38     0.112
     384.41    -0.131
     385.44    -0.122
     386.47    -0.014
     387.50     0.043
     388.53    -0.014
     389.56     0.073
     390.59     0.023
     391.62    -0.029
     392.65     0.087
     393.68     0.158
     394.71    -0.227
     395.74     0.012
     396.77    -0.088
     397.80    -0.066
     398.83    -0.070
     399.86     0.052
