%%            118.00000             3.00000    0             0.12700
% LAB  survey ------------------
% wanted position:  l, b, RA, DEC, and interpolated  NH
%118.00 ;   3.00 ;   0.95 ;  65.41 ;  0.796E+22
% nearest position: l, b, RA, DEC, and observed NH
%118.00 ;   3.00 ;   0.95 ;  65.41 ;  0.796E+22
% GASS III survey --------------
% NH - median within 6 arcmin radius   0.00    
% NH - mean within specified beam      0.00    
% EBHIS survey -----------------
% NH  within specified beam           0.752E+22
%%EBHIS   621  datapoints: v_lsr [km/s] and T_B [K]
    -399.25    -0.042
    -397.96    -0.012
    -396.68    -0.005
    -395.39     0.083
    -394.10     0.049
    -392.81     0.027
    -391.52    -0.055
    -390.23     0.041
    -388.95     0.053
    -387.66    -0.103
    -386.37     0.155
    -385.08     0.115
    -383.79    -0.080
    -382.50     0.163
    -381.22     0.009
    -379.93     0.023
    -378.64     0.021
    -377.35    -0.114
    -376.06    -0.066
    -374.78     0.032
    -373.49    -0.026
    -372.20    -0.073
    -370.91     0.093
    -369.62    -0.062
    -368.33    -0.046
    -367.05    -0.016
    -365.76     0.055
    -364.47    -0.003
    -363.18    -0.107
    -361.89    -0.014
    -360.60     0.063
    -359.32     0.064
    -358.03    -0.055
    -356.74    -0.057
    -355.45    -0.084
    -354.16    -0.080
    -352.88     0.083
    -351.59    -0.009
    -350.30    -0.019
    -349.01    -0.056
    -347.72     0.090
    -346.43     0.019
    -345.15    -0.082
    -343.86    -0.005
    -342.57     0.032
    -341.28     0.071
    -339.99    -0.052
    -338.70    -0.056
    -337.42     0.088
    -336.13     0.026
    -334.84     0.047
    -333.55     0.012
    -332.26     0.007
    -330.98     0.028
    -329.69     0.019
    -328.40     0.093
    -327.11     0.053
    -325.82     0.052
    -324.53     0.074
    -323.25    -0.053
    -321.96     0.017
    -320.67    -0.011
    -319.38    -0.030
    -318.09    -0.044
    -316.80     0.024
    -315.52     0.002
    -314.23    -0.095
    -312.94    -0.010
    -311.65    -0.033
    -310.36    -0.085
    -309.08     0.203
    -307.79     0.071
    -306.50     0.021
    -305.21     0.024
    -303.92     0.044
    -302.63     0.053
    -301.35    -0.042
    -300.06     0.030
    -298.77    -0.107
    -297.48     0.026
    -296.19     0.064
    -294.90     0.143
    -293.62    -0.026
    -292.33    -0.129
    -291.04    -0.149
    -289.75    -0.072
    -288.46     0.004
    -287.18    -0.046
    -285.89    -0.022
    -284.60    -0.034
    -283.31    -0.089
    -282.02    -0.087
    -280.73    -0.041
    -279.45    -0.028
    -278.16     0.001
    -276.87    -0.129
    -275.58     0.053
    -274.29     0.102
    -273.00     0.059
    -271.72    -0.031
    -270.43     0.034
    -269.14    -0.063
    -267.85    -0.014
    -266.56     0.025
    -265.28    -0.022
    -263.99     0.030
    -262.70    -0.063
    -261.41    -0.115
    -260.12    -0.083
    -258.83     0.077
    -257.55     0.061
    -256.26    -0.060
    -254.97    -0.002
    -253.68     0.130
    -252.39     0.060
    -251.10    -0.072
    -249.82    -0.031
    -248.53     0.009
    -247.24    -0.045
    -245.95    -0.039
    -244.66     0.074
    -243.38    -0.060
    -242.09     0.011
    -240.80     0.024
    -239.51    -0.074
    -238.22    -0.064
    -236.93     0.010
    -235.65    -0.073
    -234.36     0.147
    -233.07     0.006
    -231.78    -0.040
    -230.49    -0.011
    -229.20    -0.120
    -227.92     0.041
    -226.63    -0.062
    -225.34    -0.085
    -224.05    -0.021
    -222.76    -0.058
    -221.48    -0.113
    -220.19     0.036
    -218.90    -0.078
    -217.61    -0.066
    -216.32    -0.017
    -215.03    -0.002
    -213.75    -0.008
    -212.46    -0.000
    -211.17    -0.030
    -209.88     0.148
    -208.59     0.031
    -207.30     0.081
    -206.02    -0.018
    -204.73    -0.083
    -203.44     0.089
    -202.15     0.037
    -200.86     0.055
    -199.58    -0.058
    -198.29    -0.029
    -197.00     0.087
    -195.71     0.022
    -194.42     0.247
    -193.13    -0.089
    -191.85     0.115
    -190.56     0.128
    -189.27     0.144
    -187.98     0.097
    -186.69     0.046
    -185.40    -0.002
    -184.12     0.146
    -182.83     0.050
    -181.54     0.108
    -180.25    -0.004
    -178.96     0.017
    -177.68     0.209
    -176.39     0.240
    -175.10     0.244
    -173.81     0.071
    -172.52     0.129
    -171.23     0.233
    -169.95     0.271
    -168.66     0.211
    -167.37     0.247
    -166.08     0.168
    -164.79     0.142
    -163.50     0.135
    -162.22     0.104
    -160.93     0.255
    -159.64     0.250
    -158.35     0.054
    -157.06     0.205
    -155.78     0.306
    -154.49     0.321
    -153.20     0.294
    -151.91     0.323
    -150.62     0.345
    -149.33     0.092
    -148.05     0.262
    -146.76     0.325
    -145.47     0.334
    -144.18     0.315
    -142.89     0.289
    -141.60     0.484
    -140.32     0.592
    -139.03     0.685
    -137.74     0.713
    -136.45     0.708
    -135.16     0.912
    -133.88     1.127
    -132.59     1.254
    -131.30     1.536
    -130.01     1.960
    -128.72     1.977
    -127.43     2.102
    -126.15     1.721
    -124.86     1.620
    -123.57     1.378
    -122.28     1.163
    -120.99     1.188
    -119.70     1.126
    -118.42     0.884
    -117.13     0.825
    -115.84     0.890
    -114.55     1.330
    -113.26     1.776
    -111.98     2.954
    -110.69     5.789
    -109.40     9.499
    -108.11    13.249
    -106.82    17.111
    -105.53    21.213
    -104.25    22.325
    -102.96    19.922
    -101.67    16.079
    -100.38    12.003
     -99.09     8.171
     -97.80     5.489
     -96.52     4.326
     -95.23     5.222
     -93.94     8.025
     -92.65    12.544
     -91.36    15.557
     -90.08    15.300
     -88.79    13.380
     -87.50    12.738
     -86.21    12.507
     -84.92    12.753
     -83.63    12.899
     -82.35    12.475
     -81.06    11.013
     -79.77     9.766
     -78.48    10.268
     -77.19    11.896
     -75.90    15.472
     -74.62    21.076
     -73.33    27.990
     -72.04    35.832
     -70.75    42.667
     -69.46    46.815
     -68.18    50.320
     -66.89    51.700
     -65.60    50.201
     -64.31    49.398
     -63.02    52.311
     -61.73    59.760
     -60.45    69.201
     -59.16    76.696
     -57.87    78.350
     -56.58    74.240
     -55.29    66.881
     -54.00    61.403
     -52.72    60.836
     -51.43    63.293
     -50.14    64.334
     -48.85    62.542
     -47.56    60.565
     -46.28    56.887
     -44.99    49.413
     -43.70    39.187
     -42.41    30.295
     -41.12    26.758
     -39.83    26.114
     -38.55    26.319
     -37.26    27.229
     -35.97    28.087
     -34.68    28.094
     -33.39    26.772
     -32.10    24.310
     -30.82    23.754
     -29.53    23.749
     -28.24    21.106
     -26.95    17.652
     -25.66    14.253
     -24.38    11.359
     -23.09     9.708
     -21.80     9.329
     -20.51    10.467
     -19.22    15.318
     -17.93    28.408
     -16.65    46.618
     -15.36    57.708
     -14.07    55.978
     -12.78    54.262
     -11.49    57.051
     -10.20    61.137
      -8.92    66.051
      -7.63    71.712
      -6.34    74.371
      -5.05    71.781
      -3.76    66.970
      -2.48    60.866
      -1.19    53.750
       0.10    45.353
       1.39    38.408
       2.68    32.363
       3.97    27.442
       5.25    21.847
       6.54    15.343
       7.83    10.515
       9.12     7.416
      10.41     5.598
      11.70     3.967
      12.98     2.797
      14.27     2.184
      15.56     1.539
      16.85     1.128
      18.14     0.906
      19.42     0.616
      20.71     0.297
      22.00     0.302
      23.29     0.310
      24.58     0.211
      25.87     0.127
      27.15     0.019
      28.44     0.037
      29.73    -0.022
      31.02     0.171
      32.31     0.053
      33.60    -0.175
      34.88    -0.048
      36.17    -0.031
      37.46    -0.026
      38.75     0.038
      40.04     0.002
      41.32    -0.006
      42.61     0.114
      43.90     0.021
      45.19    -0.045
      46.48     0.016
      47.77     0.041
      49.05     0.084
      50.34    -0.020
      51.63     0.029
      52.92     0.136
      54.21     0.027
      55.50    -0.131
      56.78     0.047
      58.07    -0.067
      59.36     0.020
      60.65    -0.201
      61.94    -0.132
      63.22    -0.070
      64.51     0.005
      65.80    -0.019
      67.09    -0.055
      68.38     0.040
      69.67     0.081
      70.95     0.046
      72.24    -0.061
      73.53    -0.064
      74.82     0.050
      76.11    -0.056
      77.40     0.035
      78.68     0.037
      79.97     0.044
      81.26    -0.102
      82.55    -0.005
      83.84     0.076
      85.12    -0.031
      86.41    -0.063
      87.70    -0.065
      88.99    -0.036
      90.28     0.218
      91.57     0.169
      92.85     0.037
      94.14     0.059
      95.43     0.085
      96.72     0.047
      98.01    -0.023
      99.30    -0.001
     100.58    -0.030
     101.87     0.044
     103.16     0.193
     104.45    -0.077
     105.74    -0.179
     107.02    -0.142
     108.31     0.005
     109.60     0.082
     110.89     0.056
     112.18     0.167
     113.47     0.058
     114.75    -0.027
     116.04    -0.010
     117.33    -0.100
     118.62     0.062
     119.91     0.102
     121.20    -0.045
     122.48     0.066
     123.77     0.088
     125.06     0.019
     126.35     0.102
     127.64     0.216
     128.92     0.122
     130.21     0.011
     131.50    -0.024
     132.79     0.006
     134.08     0.036
     135.37     0.020
     136.65    -0.027
     137.94     0.128
     139.23    -0.005
     140.52     0.081
     141.81    -0.000
     143.09     0.022
     144.38     0.052
     145.67    -0.019
     146.96    -0.031
     148.25     0.059
     149.54     0.017
     150.82     0.036
     152.11     0.203
     153.40     0.031
     154.69     0.033
     155.98    -0.008
     157.27    -0.107
     158.55    -0.082
     159.84     0.008
     161.13    -0.054
     162.42     0.036
     163.71    -0.042
     164.99    -0.020
     166.28    -0.000
     167.57    -0.036
     168.86    -0.035
     170.15     0.040
     171.44     0.029
     172.72     0.060
     174.01    -0.064
     175.30     0.140
     176.59     0.027
     177.88    -0.030
     179.17    -0.117
     180.45    -0.069
     181.74    -0.003
     183.03     0.096
     184.32    -0.179
     185.61    -0.141
     186.89     0.005
     188.18     0.121
     189.47     0.089
     190.76     0.117
     192.05     0.131
     193.34     0.111
     194.62    -0.030
     195.91    -0.083
     197.20    -0.019
     198.49    -0.152
     199.78    -0.075
     201.07    -0.100
     202.35    -0.008
     203.64     0.035
     204.93     0.084
     206.22    -0.066
     207.51    -0.020
     208.79     0.062
     210.08     0.027
     211.37    -0.157
     212.66    -0.021
     213.95    -0.097
     215.24    -0.011
     216.52     0.035
     217.81    -0.026
     219.10     0.021
     220.39     0.138
     221.68     0.126
     222.97    -0.005
     224.25    -0.017
     225.54     0.020
     226.83    -0.076
     228.12     0.088
     229.41     0.042
     230.69     0.068
     231.98     0.101
     233.27     0.042
     234.56     0.049
     235.85     0.018
     237.14    -0.062
     238.42    -0.098
     239.71    -0.028
     241.00    -0.021
     242.29    -0.155
     243.58    -0.053
     244.87    -0.113
     246.15    -0.059
     247.44    -0.001
     248.73     0.014
     250.02    -0.112
     251.31    -0.142
     252.59     0.112
     253.88     0.026
     255.17    -0.133
     256.46    -0.016
     257.75     0.068
     259.04    -0.072
     260.32     0.112
     261.61     0.076
     262.90     0.139
     264.19    -0.067
     265.48     0.006
     266.77    -0.080
     268.05     0.031
     269.34    -0.046
     270.63     0.132
     271.92     0.102
     273.21     0.107
     274.49    -0.032
     275.78    -0.012
     277.07     0.036
     278.36    -0.082
     279.65    -0.160
     280.94    -0.137
     282.22     0.033
     283.51     0.183
     284.80    -0.041
     286.09    -0.191
     287.38    -0.025
     288.67    -0.025
     289.95     0.034
     291.24    -0.072
     292.53    -0.004
     293.82    -0.018
     295.11    -0.009
     296.39     0.034
     297.68    -0.034
     298.97     0.044
     300.26    -0.052
     301.55     0.018
     302.84    -0.156
     304.12    -0.124
     305.41    -0.092
     306.70    -0.056
     307.99     0.042
     309.28    -0.089
     310.57    -0.155
     311.85    -0.132
     313.14    -0.063
     314.43    -0.131
     315.72    -0.029
     317.01     0.048
     318.29     0.037
     319.58    -0.002
     320.87     0.087
     322.16    -0.144
     323.45    -0.019
     324.74    -0.046
     326.02     0.004
     327.31    -0.007
     328.60    -0.000
     329.89     0.062
     331.18     0.079
     332.47    -0.005
     333.75     0.064
     335.04     0.097
     336.33     0.086
     337.62    -0.073
     338.91     0.028
     340.19     0.017
     341.48     0.129
     342.77     0.180
     344.06    -0.083
     345.35    -0.048
     346.64    -0.033
     347.92     0.111
     349.21    -0.032
     350.50    -0.037
     351.79    -0.075
     353.08    -0.076
     354.37     0.055
     355.65     0.051
     356.94    -0.005
     358.23    -0.102
     359.52     0.004
     360.81     0.022
     362.09    -0.086
     363.38    -0.133
     364.67    -0.194
     365.96     0.030
     367.25     0.079
     368.54     0.059
     369.82     0.125
     371.11     0.151
     372.40     0.073
     373.69    -0.012
     374.98    -0.065
     376.27    -0.144
     377.55    -0.060
     378.84     0.043
     380.13    -0.009
     381.42    -0.030
     382.71     0.071
     383.99     0.108
     385.28     0.034
     386.57     0.094
     387.86     0.026
     389.15     0.026
     390.44     0.122
     391.72    -0.091
     393.01    -0.042
     394.30     0.068
     395.59    -0.100
     396.88     0.014
     398.17    -0.057
     399.45    -0.070
%%GASS      0  datapoints: v_lsr [km/s] and T_B [K] for beam weighted average and median within 6 arcmin
%%LAB     777  datapoints: v_lsr [km/s] and T_B [K]
    -399.87    -0.130
    -398.84    -0.011
    -397.81     0.085
    -396.78    -0.011
    -395.75     0.053
    -394.72    -0.058
    -393.69     0.074
    -392.66     0.065
    -391.63    -0.023
    -390.60    -0.074
    -389.56     0.075
    -388.53     0.119
    -387.50    -0.076
    -386.47    -0.094
    -385.44     0.053
    -384.41     0.039
    -383.38    -0.017
    -382.35    -0.096
    -381.32     0.155
    -380.29    -0.026
    -379.26    -0.000
    -378.23    -0.167
    -377.20     0.016
    -376.17     0.088
    -375.14     0.112
    -374.11    -0.009
    -373.08     0.088
    -372.04    -0.108
    -371.01     0.063
    -369.98    -0.042
    -368.95     0.028
    -367.92    -0.021
    -366.89    -0.028
    -365.86    -0.054
    -364.83    -0.037
    -363.80    -0.151
    -362.77    -0.064
    -361.74     0.015
    -360.71     0.031
    -359.68    -0.075
    -358.65     0.068
    -357.62     0.088
    -356.59     0.151
    -355.55     0.042
    -354.52    -0.006
    -353.49     0.005
    -352.46     0.010
    -351.43    -0.108
    -350.40    -0.119
    -349.37    -0.119
    -348.34    -0.059
    -347.31    -0.017
    -346.28    -0.108
    -345.25     0.015
    -344.22    -0.113
    -343.19    -0.030
    -342.16     0.063
    -341.13    -0.020
    -340.10     0.036
    -339.07     0.036
    -338.03    -0.047
    -337.00     0.047
    -335.97     0.097
    -334.94    -0.129
    -333.91     0.139
    -332.88     0.005
    -331.85     0.036
    -330.82     0.135
    -329.79    -0.005
    -328.76     0.009
    -327.73     0.138
    -326.70     0.023
    -325.67     0.026
    -324.64     0.031
    -323.61     0.117
    -322.58    -0.005
    -321.55     0.072
    -320.51     0.034
    -319.48     0.204
    -318.45     0.156
    -317.42    -0.133
    -316.39    -0.000
    -315.36    -0.026
    -314.33    -0.053
    -313.30    -0.042
    -312.27    -0.326
    -311.24     0.042
    -310.21    -0.010
    -309.18     0.033
    -308.15     0.044
    -307.12     0.055
    -306.09    -0.007
    -305.06     0.047
    -304.03     0.044
    -302.99    -0.071
    -301.96    -0.135
    -300.93    -0.047
    -299.90    -0.194
    -298.87    -0.076
    -297.84    -0.080
    -296.81    -0.047
    -295.78     0.061
    -294.75     0.167
    -293.72     0.165
    -292.69    -0.047
    -291.66     0.147
    -290.63     0.159
    -289.60     0.140
    -288.57     0.099
    -287.54     0.038
    -286.51     0.026
    -285.47     0.092
    -284.44     0.095
    -283.41     0.064
    -282.38     0.032
    -281.35     0.045
    -280.32     0.087
    -279.29     0.047
    -278.26     0.006
    -277.23    -0.071
    -276.20     0.176
    -275.17    -0.141
    -274.14     0.005
    -273.11    -0.025
    -272.08    -0.006
    -271.05    -0.075
    -270.02     0.068
    -268.99     0.004
    -267.95     0.190
    -266.92     0.054
    -265.89     0.006
    -264.86     0.066
    -263.83    -0.010
    -262.80     0.013
    -261.77    -0.039
    -260.74     0.049
    -259.71    -0.098
    -258.68    -0.119
    -257.65     0.027
    -256.62    -0.023
    -255.59     0.082
    -254.56    -0.098
    -253.53     0.074
    -252.50     0.071
    -251.46     0.141
    -250.43     0.117
    -249.40     0.111
    -248.37    -0.098
    -247.34    -0.046
    -246.31    -0.080
    -245.28     0.127
    -244.25    -0.033
    -243.22    -0.097
    -242.19    -0.156
    -241.16     0.064
    -240.13     0.061
    -239.10     0.001
    -238.07     0.061
    -237.04    -0.164
    -236.01    -0.070
    -234.98    -0.017
    -233.94     0.042
    -232.91     0.013
    -231.88    -0.036
    -230.85    -0.031
    -229.82     0.042
    -228.79     0.038
    -227.76    -0.036
    -226.73    -0.012
    -225.70    -0.005
    -224.67    -0.036
    -223.64    -0.020
    -222.61     0.095
    -221.58    -0.001
    -220.55    -0.009
    -219.52     0.068
    -218.49     0.031
    -217.46    -0.107
    -216.42     0.085
    -215.39     0.113
    -214.36     0.020
    -213.33     0.128
    -212.30    -0.035
    -211.27    -0.011
    -210.24     0.028
    -209.21     0.058
    -208.18    -0.032
    -207.15    -0.028
    -206.12     0.124
    -205.09     0.060
    -204.06     0.071
    -203.03    -0.203
    -202.00    -0.023
    -200.97     0.161
    -199.94    -0.092
    -198.90     0.023
    -197.87    -0.022
    -196.84    -0.068
    -195.81     0.084
    -194.78     0.064
    -193.75     0.160
    -192.72     0.053
    -191.69     0.267
    -190.66     0.136
    -189.63     0.235
    -188.60     0.136
    -187.57     0.253
    -186.54     0.156
    -185.51     0.240
    -184.48     0.236
    -183.45     0.076
    -182.42     0.058
    -181.38     0.295
    -180.35     0.236
    -179.32     0.197
    -178.29     0.344
    -177.26     0.190
    -176.23     0.240
    -175.20     0.385
    -174.17     0.307
    -173.14     0.353
    -172.11     0.322
    -171.08     0.118
    -170.05     0.187
    -169.02     0.300
    -167.99     0.177
    -166.96     0.324
    -165.93     0.256
    -164.90     0.096
    -163.86     0.258
    -162.83     0.192
    -161.80     0.190
    -160.77     0.251
    -159.74     0.279
    -158.71     0.176
    -157.68     0.203
    -156.65     0.327
    -155.62     0.259
    -154.59     0.321
    -153.56     0.462
    -152.53     0.338
    -151.50     0.274
    -150.47     0.413
    -149.44     0.189
    -148.41     0.375
    -147.37     0.322
    -146.34     0.489
    -145.31     0.467
    -144.28     0.401
    -143.25     0.476
    -142.22     0.558
    -141.19     0.549
    -140.16     0.655
    -139.13     0.551
    -138.10     0.804
    -137.07     0.815
    -136.04     0.999
    -135.01     1.040
    -133.98     1.131
    -132.95     1.254
    -131.92     1.603
    -130.89     1.796
    -129.85     2.003
    -128.82     1.917
    -127.79     2.264
    -126.76     1.930
    -125.73     1.929
    -124.70     2.081
    -123.67     1.949
    -122.64     1.776
    -121.61     1.564
    -120.58     1.308
    -119.55     1.362
    -118.52     1.261
    -117.49     1.185
    -116.46     0.996
    -115.43     1.104
    -114.40     1.228
    -113.37     1.869
    -112.33     2.868
    -111.30     4.893
    -110.27     7.582
    -109.24    10.953
    -108.21    14.701
    -107.18    19.710
    -106.15    23.800
    -105.12    25.943
    -104.09    25.964
    -103.06    24.131
    -102.03    20.602
    -101.00    17.283
     -99.97    13.044
     -98.94     9.653
     -97.91     6.738
     -96.88     5.097
     -95.85     5.022
     -94.81     5.965
     -93.78     7.709
     -92.75    10.258
     -91.72    12.456
     -90.69    13.371
     -89.66    12.975
     -88.63    12.467
     -87.60    12.425
     -86.57    13.541
     -85.54    15.199
     -84.51    16.023
     -83.48    15.859
     -82.45    14.469
     -81.42    12.945
     -80.39    11.277
     -79.36    10.273
     -78.33    11.190
     -77.29    13.118
     -76.26    16.927
     -75.23    21.513
     -74.20    27.060
     -73.17    32.375
     -72.14    38.007
     -71.11    42.653
     -70.08    46.733
     -69.05    50.122
     -68.02    52.654
     -66.99    55.382
     -65.96    57.211
     -64.93    59.403
     -63.90    61.705
     -62.87    66.218
     -61.84    71.095
     -60.81    75.411
     -59.77    78.692
     -58.74    80.241
     -57.71    78.153
     -56.68    73.614
     -55.65    67.037
     -54.62    60.649
     -53.59    58.168
     -52.56    59.091
     -51.53    62.684
     -50.50    65.128
     -49.47    64.505
     -48.44    61.749
     -47.41    58.240
     -46.38    54.727
     -45.35    50.413
     -44.32    45.783
     -43.28    39.402
     -42.25    33.125
     -41.22    29.770
     -40.19    28.290
     -39.16    27.284
     -38.13    27.147
     -37.10    27.640
     -36.07    28.569
     -35.04    29.327
     -34.01    30.397
     -32.98    31.239
     -31.95    31.598
     -30.92    30.896
     -29.89    29.223
     -28.86    27.017
     -27.83    24.156
     -26.80    20.729
     -25.76    16.762
     -24.73    13.579
     -23.70    11.601
     -22.67    10.506
     -21.64    10.745
     -20.61    13.087
     -19.58    17.861
     -18.55    26.508
     -17.52    38.941
     -16.49    51.589
     -15.46    58.551
     -14.43    58.068
     -13.40    55.361
     -12.37    55.110
     -11.34    58.202
     -10.31    62.066
      -9.28    64.865
      -8.24    68.673
      -7.21    72.100
      -6.18    73.556
      -5.15    72.371
      -4.12    69.286
      -3.09    64.774
      -2.06    59.858
      -1.03    54.842
       0.00    48.475
       1.03    42.257
       2.06    36.192
       3.09    29.976
       4.12    25.833
       5.15    21.945
       6.18    16.850
       7.21    12.391
       8.24     9.142
       9.28     7.043
      10.31     5.414
      11.34     4.201
      12.37     3.093
      13.40     2.266
      14.43     1.816
      15.46     1.320
      16.49     1.074
      17.52     0.726
      18.55     0.492
      19.58     0.462
      20.61     0.231
      21.64     0.193
      22.67     0.165
      23.70     0.066
      24.73     0.075
      25.76    -0.036
      26.80    -0.035
      27.83     0.133
      28.86     0.053
      29.89     0.167
      30.92     0.065
      31.95    -0.043
      32.98     0.058
      34.01     0.150
      35.04    -0.111
      36.07    -0.019
      37.10    -0.079
      38.13    -0.030
      39.16     0.103
      40.19     0.095
      41.22     0.131
      42.25     0.088
      43.28    -0.089
      44.32     0.171
      45.35     0.092
      46.38     0.032
      47.41     0.090
      48.44     0.054
      49.47    -0.060
      50.50    -0.160
      51.53     0.002
      52.56     0.015
      53.59     0.018
      54.62    -0.132
      55.65     0.165
      56.68    -0.010
      57.71     0.027
      58.74    -0.092
      59.77     0.034
      60.81     0.061
      61.84     0.099
      62.87    -0.171
      63.90     0.071
      64.93    -0.011
      65.96     0.151
      66.99    -0.087
      68.02     0.050
      69.05     0.064
      70.08     0.010
      71.11     0.004
      72.14     0.034
      73.17    -0.044
      74.20     0.113
      75.23     0.098
      76.26     0.006
      77.29    -0.078
      78.33     0.091
      79.36     0.092
      80.39    -0.049
      81.42     0.037
      82.45     0.103
      83.48     0.108
      84.51     0.076
      85.54     0.005
      86.57     0.058
      87.60     0.109
      88.63     0.006
      89.66     0.059
      90.69    -0.041
      91.72    -0.076
      92.75     0.109
      93.78     0.086
      94.81     0.011
      95.85    -0.074
      96.88    -0.078
      97.91    -0.027
      98.94     0.037
      99.97     0.038
     101.00    -0.079
     102.03     0.157
     103.06    -0.091
     104.09    -0.155
     105.12    -0.112
     106.15    -0.019
     107.18     0.117
     108.21     0.040
     109.24    -0.033
     110.27    -0.119
     111.30    -0.032
     112.33    -0.086
     113.37     0.077
     114.40     0.005
     115.43    -0.065
     116.46    -0.108
     117.49    -0.033
     118.52    -0.074
     119.55    -0.030
     120.58    -0.087
     121.61     0.068
     122.64    -0.057
     123.67     0.113
     124.70    -0.004
     125.73    -0.041
     126.76    -0.095
     127.79    -0.053
     128.82     0.022
     129.85     0.009
     130.89    -0.086
     131.92    -0.028
     132.95     0.037
     133.98     0.125
     135.01     0.009
     136.04     0.020
     137.07    -0.026
     138.10     0.111
     139.13    -0.114
     140.16    -0.009
     141.19     0.056
     142.22     0.066
     143.25     0.033
     144.28     0.009
     145.31     0.016
     146.34     0.036
     147.38     0.036
     148.41     0.009
     149.44    -0.082
     150.47     0.018
     151.50    -0.153
     152.53    -0.025
     153.56    -0.020
     154.59     0.182
     155.62     0.123
     156.65     0.007
     157.68    -0.082
     158.71     0.029
     159.74    -0.090
     160.77    -0.097
     161.80     0.086
     162.83    -0.039
     163.86    -0.007
     164.90     0.184
     165.93     0.112
     166.96     0.163
     167.99     0.085
     169.02     0.018
     170.05     0.111
     171.08     0.113
     172.11    -0.087
     173.14     0.048
     174.17     0.015
     175.20    -0.003
     176.23    -0.079
     177.26     0.077
     178.29    -0.006
     179.32    -0.017
     180.35    -0.177
     181.38     0.036
     182.42    -0.075
     183.45     0.138
     184.48     0.117
     185.51     0.090
     186.54    -0.023
     187.57    -0.086
     188.60     0.013
     189.63     0.038
     190.66    -0.084
     191.69     0.004
     192.72    -0.000
     193.75     0.028
     194.78    -0.129
     195.81     0.027
     196.84    -0.091
     197.87    -0.001
     198.90     0.076
     199.94     0.202
     200.97     0.039
     202.00     0.026
     203.03     0.099
     204.06    -0.060
     205.09     0.026
     206.12    -0.041
     207.15     0.072
     208.18    -0.023
     209.21     0.032
     210.24    -0.015
     211.27     0.069
     212.30     0.038
     213.33    -0.032
     214.36     0.092
     215.39     0.055
     216.42     0.081
     217.46    -0.017
     218.49     0.006
     219.52    -0.039
     220.55    -0.004
     221.58    -0.023
     222.61     0.018
     223.64    -0.041
     224.67     0.027
     225.70    -0.003
     226.73    -0.086
     227.76    -0.107
     228.79    -0.017
     229.82    -0.035
     230.85     0.016
     231.88    -0.028
     232.91     0.025
     233.94    -0.004
     234.98     0.112
     236.01     0.022
     237.04    -0.144
     238.07    -0.031
     239.10     0.091
     240.13     0.006
     241.16     0.002
     242.19    -0.049
     243.22    -0.075
     244.25    -0.044
     245.28     0.063
     246.31     0.096
     247.34     0.092
     248.37    -0.017
     249.40    -0.091
     250.43    -0.216
     251.46    -0.015
     252.50    -0.038
     253.53     0.026
     254.56     0.027
     255.59    -0.101
     256.62    -0.242
     257.65    -0.125
     258.68     0.052
     259.71     0.127
     260.74     0.007
     261.77     0.040
     262.80    -0.062
     263.83     0.017
     264.86    -0.111
     265.89     0.096
     266.92     0.011
     267.95     0.048
     268.99    -0.059
     270.02     0.070
     271.05     0.005
     272.08     0.060
     273.11     0.005
     274.14     0.036
     275.17    -0.014
     276.20     0.023
     277.23    -0.133
     278.26    -0.019
     279.29    -0.028
     280.32     0.058
     281.35    -0.050
     282.38     0.033
     283.41     0.092
     284.44    -0.196
     285.47    -0.062
     286.51    -0.036
     287.54     0.052
     288.57    -0.239
     289.60    -0.075
     290.63    -0.030
     291.66    -0.028
     292.69    -0.060
     293.72    -0.050
     294.75    -0.025
     295.78    -0.043
     296.81     0.092
     297.84    -0.081
     298.87    -0.103
     299.90    -0.007
     300.93     0.161
     301.96     0.160
     302.99    -0.096
     304.03    -0.012
     305.06     0.130
     306.09     0.007
     307.12     0.043
     308.15     0.055
     309.18     0.059
     310.21     0.086
     311.24     0.044
     312.27    -0.082
     313.30    -0.048
     314.33     0.076
     315.36    -0.124
     316.39    -0.049
     317.42    -0.060
     318.45    -0.049
     319.48     0.025
     320.51    -0.052
     321.55    -0.017
     322.58     0.130
     323.61     0.160
     324.64    -0.063
     325.67     0.101
     326.70    -0.035
     327.73     0.042
     328.76    -0.064
     329.79     0.081
     330.82    -0.047
     331.85     0.190
     332.88     0.011
     333.91    -0.020
     334.94     0.081
     335.97     0.102
     337.00     0.077
     338.03    -0.000
     339.07     0.117
     340.10     0.087
     341.13     0.238
     342.16     0.104
     343.19     0.012
     344.22    -0.071
     345.25     0.064
     346.28    -0.019
     347.31    -0.060
     348.34     0.056
     349.37     0.092
     350.40    -0.059
     351.43     0.092
     352.46    -0.028
     353.49    -0.073
     354.52    -0.080
     355.55    -0.138
     356.59     0.056
     357.62    -0.030
     358.65     0.068
     359.68     0.025
     360.71    -0.065
     361.74    -0.012
     362.77    -0.000
     363.80     0.065
     364.83     0.004
     365.86    -0.046
     366.89    -0.004
     367.92     0.033
     368.95    -0.059
     369.98    -0.116
     371.01     0.025
     372.04     0.013
     373.08     0.009
     374.11    -0.037
     375.14     0.074
     376.17    -0.108
     377.20    -0.209
     378.23     0.011
     379.26     0.085
     380.29    -0.138
     381.32    -0.004
     382.35     0.022
     383.38    -0.009
     384.41     0.129
     385.44     0.079
     386.47     0.009
     387.50     0.106
     388.53    -0.111
     389.56     0.055
     390.60     0.021
     391.63     0.113
     392.66     0.020
     393.69    -0.062
     394.72     0.039
     395.75     0.033
     396.78     0.096
     397.81    -0.075
     398.84    -0.132
     399.87     0.028
