%%            138.00000             3.00000    0             0.12700
% LAB  survey ------------------
% wanted position:  l, b, RA, DEC, and interpolated  NH
%138.00 ;   3.00 ;  46.30 ;  61.89 ;  0.655E+22
% nearest position: l, b, RA, DEC, and observed NH
%138.00 ;   3.00 ;  46.30 ;  61.89 ;  0.655E+22
% GASS III survey --------------
% NH - median within 6 arcmin radius   0.00    
% NH - mean within specified beam      0.00    
% EBHIS survey -----------------
% NH  within specified beam           0.647E+22
%%EBHIS   621  datapoints: v_lsr [km/s] and T_B [K]
    -399.25    -0.063
    -397.96     0.049
    -396.68    -0.080
    -395.39    -0.006
    -394.10     0.104
    -392.81     0.135
    -391.52     0.007
    -390.23    -0.077
    -388.95    -0.056
    -387.66     0.054
    -386.37    -0.030
    -385.08     0.043
    -383.79    -0.092
    -382.50    -0.028
    -381.22    -0.098
    -379.93     0.028
    -378.64     0.090
    -377.35     0.003
    -376.06    -0.039
    -374.78     0.032
    -373.49     0.039
    -372.20     0.043
    -370.91     0.020
    -369.62    -0.026
    -368.33    -0.043
    -367.05    -0.031
    -365.76     0.034
    -364.47    -0.033
    -363.18    -0.004
    -361.89     0.040
    -360.60     0.125
    -359.32     0.173
    -358.03     0.079
    -356.74     0.148
    -355.45     0.004
    -354.16     0.099
    -352.88     0.109
    -351.59     0.042
    -350.30     0.091
    -349.01     0.140
    -347.72    -0.016
    -346.43     0.030
    -345.15     0.098
    -343.86    -0.008
    -342.57     0.198
    -341.28     0.105
    -339.99     0.010
    -338.70    -0.080
    -337.42    -0.117
    -336.13    -0.137
    -334.84    -0.055
    -333.55     0.043
    -332.26     0.058
    -330.98    -0.075
    -329.69    -0.032
    -328.40    -0.044
    -327.11    -0.157
    -325.82    -0.118
    -324.53     0.072
    -323.25     0.040
    -321.96    -0.009
    -320.67     0.076
    -319.38     0.052
    -318.09    -0.045
    -316.80    -0.047
    -315.52     0.011
    -314.23     0.015
    -312.94     0.081
    -311.65    -0.034
    -310.36    -0.008
    -309.08     0.001
    -307.79    -0.051
    -306.50    -0.111
    -305.21    -0.012
    -303.92     0.064
    -302.63     0.035
    -301.35     0.132
    -300.06     0.095
    -298.77    -0.039
    -297.48     0.159
    -296.19     0.049
    -294.90     0.019
    -293.62     0.001
    -292.33    -0.057
    -291.04    -0.042
    -289.75     0.026
    -288.46     0.093
    -287.18     0.073
    -285.89     0.016
    -284.60    -0.023
    -283.31     0.013
    -282.02     0.052
    -280.73    -0.115
    -279.45    -0.049
    -278.16     0.012
    -276.87    -0.078
    -275.58    -0.093
    -274.29    -0.069
    -273.00    -0.049
    -271.72     0.005
    -270.43     0.040
    -269.14     0.038
    -267.85     0.043
    -266.56    -0.016
    -265.28     0.044
    -263.99     0.019
    -262.70    -0.028
    -261.41     0.069
    -260.12     0.107
    -258.83     0.004
    -257.55    -0.054
    -256.26     0.057
    -254.97    -0.041
    -253.68    -0.127
    -252.39     0.006
    -251.10    -0.025
    -249.82    -0.081
    -248.53    -0.044
    -247.24    -0.154
    -245.95    -0.025
    -244.66     0.048
    -243.38     0.031
    -242.09     0.031
    -240.80    -0.038
    -239.51    -0.021
    -238.22     0.004
    -236.93    -0.049
    -235.65    -0.038
    -234.36    -0.034
    -233.07     0.067
    -231.78    -0.039
    -230.49    -0.017
    -229.20     0.094
    -227.92     0.167
    -226.63     0.016
    -225.34    -0.110
    -224.05     0.019
    -222.76    -0.090
    -221.48    -0.065
    -220.19     0.008
    -218.90    -0.028
    -217.61    -0.055
    -216.32    -0.107
    -215.03    -0.080
    -213.75     0.007
    -212.46     0.027
    -211.17    -0.127
    -209.88     0.040
    -208.59     0.155
    -207.30     0.010
    -206.02    -0.012
    -204.73    -0.035
    -203.44    -0.022
    -202.15     0.094
    -200.86     0.045
    -199.58    -0.011
    -198.29     0.067
    -197.00     0.141
    -195.71     0.114
    -194.42     0.191
    -193.13     0.012
    -191.85    -0.023
    -190.56     0.044
    -189.27    -0.098
    -187.98     0.043
    -186.69     0.112
    -185.40    -0.059
    -184.12    -0.188
    -182.83    -0.114
    -181.54    -0.026
    -180.25    -0.022
    -178.96     0.039
    -177.68     0.050
    -176.39     0.068
    -175.10     0.032
    -173.81     0.017
    -172.52    -0.094
    -171.23    -0.067
    -169.95     0.005
    -168.66     0.186
    -167.37     0.158
    -166.08     0.047
    -164.79    -0.055
    -163.50    -0.116
    -162.22     0.066
    -160.93     0.072
    -159.64    -0.101
    -158.35    -0.123
    -157.06    -0.020
    -155.78     0.012
    -154.49     0.031
    -153.20    -0.044
    -151.91    -0.099
    -150.62     0.051
    -149.33    -0.060
    -148.05    -0.000
    -146.76    -0.096
    -145.47    -0.107
    -144.18     0.021
    -142.89    -0.023
    -141.60    -0.160
    -140.32    -0.061
    -139.03    -0.002
    -137.74    -0.012
    -136.45    -0.006
    -135.16    -0.054
    -133.88     0.097
    -132.59     0.024
    -131.30     0.101
    -130.01     0.273
    -128.72     0.251
    -127.43     0.148
    -126.15     0.046
    -124.86    -0.009
    -123.57     0.062
    -122.28     0.170
    -120.99     0.229
    -119.70     0.149
    -118.42     0.164
    -117.13     0.148
    -115.84     0.135
    -114.55     0.264
    -113.26     0.350
    -111.98     0.387
    -110.69     0.548
    -109.40     0.658
    -108.11     0.925
    -106.82     1.091
    -105.53     1.416
    -104.25     1.923
    -102.96     2.643
    -101.67     3.916
    -100.38     5.734
     -99.09     7.259
     -97.80     8.384
     -96.52     8.611
     -95.23     8.244
     -93.94     7.300
     -92.65     6.182
     -91.36     5.253
     -90.08     5.380
     -88.79     6.239
     -87.50     7.176
     -86.21     7.554
     -84.92     8.588
     -83.63    11.929
     -82.35    16.619
     -81.06    21.071
     -79.77    25.712
     -78.48    30.974
     -77.19    34.888
     -75.90    32.692
     -74.62    26.299
     -73.33    21.458
     -72.04    22.861
     -70.75    27.588
     -69.46    32.257
     -68.18    36.090
     -66.89    34.769
     -65.60    25.095
     -64.31    15.307
     -63.02    10.483
     -61.73     8.948
     -60.45     8.892
     -59.16    10.398
     -57.87    15.100
     -56.58    21.553
     -55.29    27.233
     -54.00    31.784
     -52.72    36.985
     -51.43    46.041
     -50.14    57.586
     -48.85    68.411
     -47.56    73.326
     -46.28    72.830
     -44.99    67.883
     -43.70    60.484
     -42.41    53.120
     -41.12    48.790
     -39.83    48.711
     -38.55    47.832
     -37.26    45.334
     -35.97    39.566
     -34.68    32.083
     -33.39    26.681
     -32.10    23.117
     -30.82    20.596
     -29.53    18.686
     -28.24    17.469
     -26.95    16.953
     -25.66    16.707
     -24.38    17.192
     -23.09    17.942
     -21.80    19.009
     -20.51    20.486
     -19.22    21.983
     -17.93    24.779
     -16.65    28.717
     -15.36    32.247
     -14.07    36.326
     -12.78    43.465
     -11.49    53.057
     -10.20    63.928
      -8.92    75.108
      -7.63    80.442
      -6.34    76.290
      -5.05    67.742
      -3.76    61.260
      -2.48    60.922
      -1.19    61.831
       0.10    58.692
       1.39    55.293
       2.68    51.074
       3.97    42.730
       5.25    31.899
       6.54    18.796
       7.83     9.308
       9.12     6.050
      10.41     4.384
      11.70     3.347
      12.98     2.876
      14.27     2.536
      15.56     1.904
      16.85     1.193
      18.14     0.785
      19.42     0.515
      20.71     0.364
      22.00     0.257
      23.29     0.073
      24.58     0.211
      25.87     0.096
      27.15     0.052
      28.44     0.070
      29.73     0.054
      31.02     0.042
      32.31    -0.033
      33.60    -0.012
      34.88    -0.026
      36.17    -0.100
      37.46     0.059
      38.75     0.083
      40.04     0.026
      41.32     0.042
      42.61    -0.068
      43.90    -0.046
      45.19    -0.002
      46.48     0.006
      47.77    -0.057
      49.05     0.134
      50.34    -0.000
      51.63     0.045
      52.92     0.038
      54.21     0.036
      55.50     0.007
      56.78    -0.089
      58.07    -0.041
      59.36     0.024
      60.65     0.021
      61.94    -0.016
      63.22    -0.009
      64.51    -0.045
      65.80     0.061
      67.09    -0.042
      68.38    -0.134
      69.67    -0.128
      70.95     0.003
      72.24     0.015
      73.53    -0.107
      74.82    -0.124
      76.11    -0.070
      77.40     0.029
      78.68     0.066
      79.97    -0.084
      81.26    -0.156
      82.55     0.003
      83.84     0.068
      85.12     0.071
      86.41     0.049
      87.70     0.044
      88.99     0.013
      90.28     0.117
      91.57     0.065
      92.85    -0.109
      94.14    -0.044
      95.43    -0.028
      96.72     0.038
      98.01    -0.007
      99.30     0.079
     100.58    -0.033
     101.87    -0.142
     103.16    -0.057
     104.45    -0.060
     105.74     0.101
     107.02     0.105
     108.31     0.054
     109.60     0.013
     110.89     0.029
     112.18     0.005
     113.47    -0.085
     114.75     0.002
     116.04     0.086
     117.33     0.007
     118.62    -0.052
     119.91    -0.043
     121.20     0.022
     122.48     0.093
     123.77     0.083
     125.06    -0.102
     126.35     0.025
     127.64     0.153
     128.92     0.156
     130.21     0.045
     131.50    -0.162
     132.79    -0.083
     134.08     0.053
     135.37     0.056
     136.65     0.042
     137.94    -0.082
     139.23     0.099
     140.52     0.048
     141.81    -0.024
     143.09     0.086
     144.38     0.171
     145.67     0.146
     146.96     0.030
     148.25    -0.004
     149.54    -0.008
     150.82     0.008
     152.11     0.048
     153.40    -0.042
     154.69     0.051
     155.98     0.095
     157.27     0.010
     158.55     0.102
     159.84     0.103
     161.13     0.073
     162.42     0.205
     163.71     0.069
     164.99     0.074
     166.28    -0.010
     167.57     0.039
     168.86    -0.025
     170.15     0.034
     171.44     0.056
     172.72     0.010
     174.01    -0.060
     175.30    -0.105
     176.59    -0.003
     177.88     0.025
     179.17    -0.006
     180.45    -0.040
     181.74    -0.167
     183.03    -0.091
     184.32    -0.063
     185.61     0.012
     186.89     0.098
     188.18    -0.023
     189.47    -0.150
     190.76    -0.111
     192.05    -0.113
     193.34    -0.020
     194.62    -0.093
     195.91    -0.013
     197.20    -0.052
     198.49    -0.154
     199.78     0.019
     201.07     0.040
     202.35    -0.047
     203.64    -0.138
     204.93    -0.028
     206.22     0.027
     207.51    -0.086
     208.79    -0.073
     210.08     0.064
     211.37     0.066
     212.66     0.005
     213.95    -0.025
     215.24     0.006
     216.52    -0.042
     217.81    -0.070
     219.10    -0.120
     220.39    -0.055
     221.68    -0.101
     222.97    -0.081
     224.25    -0.003
     225.54    -0.093
     226.83    -0.128
     228.12     0.084
     229.41     0.102
     230.69     0.052
     231.98    -0.107
     233.27    -0.076
     234.56    -0.011
     235.85    -0.061
     237.14    -0.124
     238.42    -0.057
     239.71    -0.057
     241.00     0.054
     242.29    -0.030
     243.58    -0.066
     244.87    -0.014
     246.15     0.014
     247.44     0.120
     248.73    -0.011
     250.02    -0.125
     251.31     0.084
     252.59     0.087
     253.88    -0.057
     255.17    -0.029
     256.46     0.134
     257.75     0.073
     259.04     0.082
     260.32     0.143
     261.61     0.134
     262.90     0.021
     264.19     0.045
     265.48     0.206
     266.77     0.138
     268.05    -0.047
     269.34     0.069
     270.63     0.006
     271.92     0.017
     273.21     0.107
     274.49     0.076
     275.78     0.035
     277.07     0.084
     278.36     0.089
     279.65    -0.064
     280.94    -0.088
     282.22    -0.096
     283.51     0.030
     284.80     0.106
     286.09     0.023
     287.38     0.021
     288.67     0.003
     289.95    -0.040
     291.24     0.015
     292.53     0.030
     293.82     0.037
     295.11    -0.023
     296.39     0.037
     297.68    -0.074
     298.97    -0.080
     300.26    -0.020
     301.55    -0.039
     302.84     0.029
     304.12     0.138
     305.41    -0.024
     306.70    -0.012
     307.99    -0.034
     309.28    -0.017
     310.57    -0.076
     311.85     0.017
     313.14    -0.005
     314.43    -0.004
     315.72     0.063
     317.01    -0.046
     318.29    -0.127
     319.58    -0.005
     320.87    -0.000
     322.16    -0.061
     323.45     0.059
     324.74     0.005
     326.02    -0.074
     327.31    -0.052
     328.60     0.027
     329.89    -0.027
     331.18    -0.069
     332.47     0.039
     333.75    -0.020
     335.04    -0.047
     336.33     0.094
     337.62    -0.010
     338.91    -0.087
     340.19     0.067
     341.48     0.077
     342.77     0.029
     344.06     0.048
     345.35     0.023
     346.64     0.007
     347.92     0.004
     349.21     0.052
     350.50     0.095
     351.79     0.093
     353.08     0.159
     354.37    -0.026
     355.65     0.004
     356.94     0.045
     358.23     0.091
     359.52    -0.024
     360.81    -0.010
     362.09     0.065
     363.38    -0.104
     364.67    -0.111
     365.96    -0.120
     367.25    -0.057
     368.54    -0.056
     369.82    -0.096
     371.11    -0.050
     372.40    -0.087
     373.69     0.056
     374.98     0.112
     376.27     0.061
     377.55     0.060
     378.84    -0.054
     380.13    -0.092
     381.42     0.003
     382.71    -0.098
     383.99    -0.025
     385.28     0.089
     386.57     0.108
     387.86    -0.015
     389.15    -0.194
     390.44    -0.099
     391.72    -0.012
     393.01    -0.159
     394.30     0.109
     395.59     0.152
     396.88     0.059
     398.17     0.014
     399.45     0.056
%%GASS      0  datapoints: v_lsr [km/s] and T_B [K] for beam weighted average and median within 6 arcmin
%%LAB     777  datapoints: v_lsr [km/s] and T_B [K]
    -399.88     0.038
    -398.85    -0.091
    -397.82    -0.168
    -396.79    -0.007
    -395.76     0.085
    -394.73    -0.149
    -393.70    -0.065
    -392.67    -0.056
    -391.64     0.137
    -390.61    -0.045
    -389.58     0.059
    -388.54     0.061
    -387.51     0.055
    -386.48    -0.151
    -385.45     0.036
    -384.42     0.069
    -383.39    -0.070
    -382.36     0.052
    -381.33    -0.061
    -380.30    -0.179
    -379.27    -0.073
    -378.24     0.014
    -377.21     0.207
    -376.18     0.150
    -375.15     0.003
    -374.12     0.049
    -373.09    -0.148
    -372.05    -0.041
    -371.02    -0.029
    -369.99    -0.067
    -368.96     0.061
    -367.93    -0.067
    -366.90     0.059
    -365.87    -0.005
    -364.84     0.043
    -363.81     0.068
    -362.78    -0.020
    -361.75    -0.017
    -360.72     0.155
    -359.69    -0.042
    -358.66     0.053
    -357.63    -0.015
    -356.60    -0.076
    -355.56    -0.009
    -354.53     0.059
    -353.50     0.112
    -352.47     0.035
    -351.44    -0.007
    -350.41     0.077
    -349.38     0.167
    -348.35    -0.038
    -347.32    -0.049
    -346.29    -0.030
    -345.26    -0.037
    -344.23     0.087
    -343.20     0.010
    -342.17    -0.022
    -341.14     0.011
    -340.11     0.062
    -339.07    -0.016
    -338.04     0.087
    -337.01    -0.022
    -335.98    -0.069
    -334.95     0.117
    -333.92    -0.033
    -332.89     0.053
    -331.86     0.087
    -330.83     0.213
    -329.80    -0.082
    -328.77    -0.106
    -327.74    -0.068
    -326.71    -0.108
    -325.68     0.098
    -324.65     0.013
    -323.62    -0.039
    -322.58    -0.022
    -321.55     0.180
    -320.52    -0.049
    -319.49     0.098
    -318.46     0.033
    -317.43     0.081
    -316.40     0.052
    -315.37     0.075
    -314.34    -0.157
    -313.31    -0.041
    -312.28    -0.068
    -311.25    -0.002
    -310.22     0.014
    -309.19     0.043
    -308.16    -0.011
    -307.13     0.036
    -306.09     0.015
    -305.06     0.065
    -304.03    -0.064
    -303.00     0.064
    -301.97     0.019
    -300.94    -0.025
    -299.91    -0.057
    -298.88     0.124
    -297.85     0.049
    -296.82     0.022
    -295.79    -0.049
    -294.76    -0.082
    -293.73     0.144
    -292.70     0.042
    -291.67    -0.103
    -290.64     0.066
    -289.60    -0.016
    -288.57     0.055
    -287.54    -0.081
    -286.51    -0.113
    -285.48    -0.144
    -284.45    -0.064
    -283.42    -0.050
    -282.39     0.045
    -281.36    -0.023
    -280.33    -0.004
    -279.30     0.077
    -278.27     0.071
    -277.24    -0.068
    -276.21     0.040
    -275.18    -0.024
    -274.15     0.021
    -273.11     0.105
    -272.08     0.142
    -271.05    -0.015
    -270.02    -0.044
    -268.99    -0.031
    -267.96    -0.024
    -266.93    -0.028
    -265.90    -0.031
    -264.87    -0.088
    -263.84     0.054
    -262.81    -0.015
    -261.78     0.021
    -260.75    -0.189
    -259.72     0.112
    -258.69     0.132
    -257.66    -0.090
    -256.62    -0.003
    -255.59     0.203
    -254.56     0.025
    -253.53    -0.081
    -252.50    -0.026
    -251.47     0.152
    -250.44     0.004
    -249.41     0.100
    -248.38     0.099
    -247.35     0.026
    -246.32    -0.073
    -245.29    -0.024
    -244.26     0.100
    -243.23     0.006
    -242.20    -0.081
    -241.17    -0.000
    -240.13     0.069
    -239.10    -0.088
    -238.07     0.001
    -237.04    -0.035
    -236.01    -0.043
    -234.98     0.033
    -233.95    -0.095
    -232.92    -0.067
    -231.89    -0.004
    -230.86    -0.126
    -229.83    -0.004
    -228.80    -0.028
    -227.77     0.008
    -226.74    -0.082
    -225.71     0.062
    -224.68    -0.057
    -223.64    -0.012
    -222.61    -0.115
    -221.58     0.067
    -220.55     0.054
    -219.52     0.035
    -218.49     0.090
    -217.46    -0.039
    -216.43    -0.015
    -215.40    -0.113
    -214.37    -0.003
    -213.34    -0.013
    -212.31    -0.046
    -211.28    -0.135
    -210.25    -0.073
    -209.22     0.142
    -208.19     0.015
    -207.16     0.035
    -206.12    -0.026
    -205.09     0.014
    -204.06    -0.089
    -203.03     0.040
    -202.00     0.066
    -200.97    -0.233
    -199.94    -0.093
    -198.91    -0.033
    -197.88    -0.077
    -196.85     0.169
    -195.82    -0.060
    -194.79    -0.044
    -193.76     0.007
    -192.73    -0.010
    -191.70     0.019
    -190.67    -0.023
    -189.63     0.009
    -188.60    -0.018
    -187.57    -0.044
    -186.54    -0.127
    -185.51     0.010
    -184.48    -0.064
    -183.45     0.021
    -182.42     0.064
    -181.39     0.059
    -180.36     0.026
    -179.33     0.061
    -178.30     0.090
    -177.27     0.046
    -176.24    -0.114
    -175.21     0.172
    -174.18    -0.006
    -173.14     0.111
    -172.11     0.025
    -171.08    -0.020
    -170.05    -0.095
    -169.02     0.008
    -167.99     0.069
    -166.96     0.011
    -165.93     0.019
    -164.90    -0.003
    -163.87     0.043
    -162.84     0.103
    -161.81    -0.045
    -160.78    -0.094
    -159.75    -0.043
    -158.72     0.061
    -157.69     0.016
    -156.65    -0.061
    -155.62     0.235
    -154.59     0.087
    -153.56    -0.025
    -152.53     0.112
    -151.50     0.139
    -150.47     0.136
    -149.44     0.028
    -148.41     0.114
    -147.38     0.036
    -146.35     0.110
    -145.32     0.087
    -144.29     0.167
    -143.26    -0.037
    -142.23     0.038
    -141.20    -0.096
    -140.16     0.110
    -139.13     0.136
    -138.10     0.131
    -137.07     0.129
    -136.04     0.048
    -135.01     0.032
    -133.98     0.064
    -132.95     0.137
    -131.92     0.265
    -130.89     0.337
    -129.86     0.197
    -128.83     0.105
    -127.80     0.272
    -126.77     0.201
    -125.74     0.383
    -124.71     0.140
    -123.67     0.381
    -122.64     0.280
    -121.61     0.098
    -120.58     0.140
    -119.55     0.335
    -118.52     0.164
    -117.49     0.342
    -116.46     0.201
    -115.43     0.329
    -114.40     0.327
    -113.37     0.310
    -112.34     0.477
    -111.31     0.576
    -110.28     0.421
    -109.25     0.767
    -108.22     0.829
    -107.18     0.981
    -106.15     1.025
    -105.12     1.230
    -104.09     1.461
    -103.06     2.021
    -102.03     2.683
    -101.00     3.737
     -99.97     4.602
     -98.94     6.152
     -97.91     7.292
     -96.88     7.742
     -95.85     7.679
     -94.82     6.828
     -93.79     6.236
     -92.76     5.764
     -91.73     5.261
     -90.69     5.440
     -89.66     5.789
     -88.63     6.272
     -87.60     6.744
     -86.57     7.196
     -85.54     8.150
     -84.51     9.556
     -83.48    11.427
     -82.45    14.136
     -81.42    17.077
     -80.39    20.247
     -79.36    24.134
     -78.33    27.879
     -77.30    30.246
     -76.27    30.411
     -75.24    27.444
     -74.20    23.503
     -73.17    21.251
     -72.14    22.452
     -71.11    24.653
     -70.08    28.128
     -69.05    32.344
     -68.02    36.733
     -66.99    37.710
     -65.96    32.770
     -64.93    25.525
     -63.90    19.083
     -62.87    14.731
     -61.84    12.007
     -60.81    10.160
     -59.78     9.784
     -58.75    11.836
     -57.71    16.489
     -56.68    23.150
     -55.65    29.534
     -54.62    33.550
     -53.59    36.483
     -52.56    39.963
     -51.53    45.458
     -50.50    52.845
     -49.47    61.610
     -48.44    68.055
     -47.41    70.766
     -46.38    70.592
     -45.35    67.159
     -44.32    61.728
     -43.29    56.490
     -42.26    52.612
     -41.22    50.977
     -40.19    50.093
     -39.16    49.022
     -38.13    46.812
     -37.10    44.753
     -36.07    40.827
     -35.04    35.761
     -34.01    31.025
     -32.98    27.276
     -31.95    24.982
     -30.92    22.989
     -29.89    21.789
     -28.86    20.486
     -27.83    19.856
     -26.80    19.509
     -25.77    19.367
     -24.73    19.299
     -23.70    19.638
     -22.67    19.896
     -21.64    20.118
     -20.61    21.199
     -19.58    21.989
     -18.55    23.693
     -17.52    26.282
     -16.49    29.762
     -15.46    33.239
     -14.43    37.392
     -13.40    43.506
     -12.37    51.248
     -11.34    58.510
     -10.31    65.118
      -9.28    71.771
      -8.24    76.292
      -7.21    77.318
      -6.18    74.807
      -5.15    70.604
      -4.12    64.922
      -3.09    62.002
      -2.06    62.118
      -1.03    61.658
       0.00    59.306
       1.03    55.439
       2.06    52.855
       3.09    48.554
       4.12    41.510
       5.15    33.620
       6.18    23.104
       7.21    12.999
       8.24     8.052
       9.28     5.773
      10.31     4.535
      11.34     3.724
      12.37     3.117
      13.40     2.621
      14.43     2.310
      15.46     1.600
      16.49     1.403
      17.52     0.884
      18.55     0.825
      19.58     0.454
      20.61     0.312
      21.64     0.225
      22.67     0.180
      23.70     0.086
      24.73     0.126
      25.77    -0.052
      26.80     0.127
      27.83     0.048
      28.86     0.054
      29.89     0.077
      30.92    -0.068
      31.95     0.064
      32.98    -0.089
      34.01    -0.010
      35.04    -0.039
      36.07     0.110
      37.10     0.033
      38.13    -0.162
      39.16    -0.009
      40.19    -0.161
      41.22     0.067
      42.26     0.015
      43.29     0.017
      44.32     0.092
      45.35     0.020
      46.38     0.214
      47.41    -0.036
      48.44     0.065
      49.47     0.099
      50.50     0.073
      51.53    -0.041
      52.56     0.078
      53.59     0.073
      54.62     0.009
      55.65     0.062
      56.68     0.008
      57.71     0.098
      58.75     0.027
      59.78     0.191
      60.81     0.029
      61.84     0.120
      62.87     0.002
      63.90     0.090
      64.93     0.025
      65.96     0.042
      66.99     0.127
      68.02     0.065
      69.05     0.142
      70.08    -0.125
      71.11    -0.136
      72.14    -0.041
      73.17    -0.007
      74.20     0.046
      75.24     0.007
      76.27     0.097
      77.30    -0.073
      78.33     0.051
      79.36    -0.026
      80.39     0.182
      81.42     0.081
      82.45     0.184
      83.48    -0.122
      84.51     0.046
      85.54     0.092
      86.57    -0.158
      87.60     0.023
      88.63     0.148
      89.66    -0.068
      90.69     0.062
      91.73     0.049
      92.76     0.113
      93.79    -0.003
      94.82     0.110
      95.85    -0.070
      96.88    -0.114
      97.91     0.098
      98.94     0.180
      99.97     0.055
     101.00     0.039
     102.03    -0.010
     103.06     0.081
     104.09     0.094
     105.12     0.131
     106.15    -0.076
     107.18     0.097
     108.22     0.038
     109.25     0.027
     110.28    -0.077
     111.31    -0.122
     112.34    -0.166
     113.37     0.064
     114.40    -0.011
     115.43     0.022
     116.46    -0.061
     117.49     0.154
     118.52     0.098
     119.55     0.052
     120.58    -0.031
     121.61     0.061
     122.64    -0.049
     123.67     0.017
     124.71     0.069
     125.74     0.132
     126.77    -0.154
     127.80    -0.041
     128.83    -0.102
     129.86    -0.039
     130.89    -0.165
     131.92     0.067
     132.95    -0.080
     133.98     0.181
     135.01    -0.113
     136.04     0.049
     137.07     0.029
     138.10    -0.004
     139.13     0.046
     140.16    -0.060
     141.20    -0.000
     142.23    -0.057
     143.26    -0.067
     144.29    -0.024
     145.32    -0.012
     146.35    -0.058
     147.38    -0.019
     148.41    -0.022
     149.44    -0.151
     150.47     0.098
     151.50    -0.090
     152.53     0.077
     153.56    -0.015
     154.59     0.045
     155.62     0.065
     156.65    -0.002
     157.69     0.043
     158.72     0.035
     159.75    -0.136
     160.78    -0.007
     161.81    -0.043
     162.84    -0.023
     163.87     0.002
     164.90     0.137
     165.93    -0.141
     166.96    -0.036
     167.99    -0.090
     169.02     0.110
     170.05     0.035
     171.08    -0.022
     172.11    -0.005
     173.14    -0.000
     174.18    -0.010
     175.21     0.036
     176.24     0.028
     177.27     0.053
     178.30     0.178
     179.33     0.074
     180.36     0.039
     181.39    -0.073
     182.42    -0.083
     183.45    -0.046
     184.48     0.086
     185.51    -0.000
     186.54    -0.087
     187.57     0.029
     188.60    -0.157
     189.63     0.036
     190.67     0.073
     191.70     0.090
     192.73     0.078
     193.76     0.022
     194.79    -0.007
     195.82     0.055
     196.85     0.075
     197.88    -0.031
     198.91    -0.042
     199.94     0.148
     200.97     0.092
     202.00     0.030
     203.03     0.022
     204.06     0.097
     205.09     0.114
     206.12     0.015
     207.16    -0.009
     208.19    -0.074
     209.22    -0.159
     210.25    -0.116
     211.28    -0.076
     212.31    -0.026
     213.34    -0.166
     214.37    -0.057
     215.40    -0.007
     216.43    -0.062
     217.46    -0.030
     218.49     0.019
     219.52    -0.077
     220.55     0.162
     221.58    -0.039
     222.61     0.109
     223.65    -0.076
     224.68     0.033
     225.71     0.059
     226.74    -0.017
     227.77     0.061
     228.80    -0.074
     229.83     0.001
     230.86     0.032
     231.89    -0.030
     232.92     0.091
     233.95    -0.148
     234.98    -0.166
     236.01    -0.183
     237.04     0.056
     238.07    -0.094
     239.10    -0.002
     240.13    -0.039
     241.17     0.038
     242.20    -0.063
     243.23    -0.015
     244.26    -0.050
     245.29    -0.212
     246.32    -0.068
     247.35    -0.031
     248.38     0.008
     249.41     0.133
     250.44     0.090
     251.47     0.077
     252.50     0.091
     253.53    -0.102
     254.56     0.008
     255.59    -0.006
     256.62    -0.089
     257.66     0.071
     258.69     0.117
     259.72    -0.033
     260.75     0.022
     261.78     0.039
     262.81     0.004
     263.84     0.125
     264.87    -0.010
     265.90     0.059
     266.93     0.041
     267.96     0.052
     268.99    -0.015
     270.02     0.011
     271.05     0.049
     272.08     0.038
     273.11    -0.048
     274.15    -0.122
     275.18    -0.050
     276.21    -0.023
     277.24     0.189
     278.27    -0.065
     279.30    -0.075
     280.33    -0.038
     281.36    -0.042
     282.39     0.017
     283.42    -0.003
     284.45    -0.097
     285.48    -0.202
     286.51     0.065
     287.54     0.158
     288.57     0.023
     289.60     0.038
     290.64    -0.033
     291.67     0.029
     292.70     0.176
     293.73    -0.070
     294.76     0.157
     295.79     0.066
     296.82     0.098
     297.85    -0.093
     298.88    -0.035
     299.91     0.034
     300.94    -0.009
     301.97     0.131
     303.00    -0.123
     304.03     0.088
     305.06    -0.049
     306.09    -0.028
     307.13     0.034
     308.16    -0.083
     309.19    -0.050
     310.22    -0.055
     311.25     0.053
     312.28     0.211
     313.31     0.034
     314.34    -0.160
     315.37     0.066
     316.40    -0.042
     317.43    -0.046
     318.46    -0.026
     319.49     0.156
     320.52    -0.152
     321.55     0.020
     322.58    -0.049
     323.62     0.067
     324.65     0.019
     325.68     0.048
     326.71     0.039
     327.74    -0.087
     328.77    -0.056
     329.80     0.176
     330.83    -0.083
     331.86    -0.005
     332.89     0.003
     333.92    -0.033
     334.95     0.021
     335.98    -0.091
     337.01    -0.005
     338.04     0.041
     339.07    -0.005
     340.11     0.112
     341.14    -0.049
     342.17    -0.024
     343.20    -0.068
     344.23     0.139
     345.26    -0.097
     346.29    -0.044
     347.32    -0.016
     348.35    -0.102
     349.38     0.071
     350.41    -0.006
     351.44     0.021
     352.47     0.015
     353.50    -0.057
     354.53     0.009
     355.56    -0.106
     356.60     0.118
     357.63    -0.000
     358.66    -0.071
     359.69    -0.096
     360.72    -0.057
     361.75    -0.007
     362.78     0.094
     363.81     0.071
     364.84     0.086
     365.87    -0.015
     366.90    -0.026
     367.93     0.137
     368.96     0.086
     369.99     0.016
     371.02    -0.139
     372.05    -0.036
     373.09    -0.110
     374.12    -0.048
     375.15    -0.032
     376.18     0.033
     377.21     0.066
     378.24     0.078
     379.27    -0.011
     380.30    -0.037
     381.33    -0.088
     382.36     0.114
     383.39    -0.002
     384.42    -0.005
     385.45    -0.067
     386.48    -0.003
     387.51     0.088
     388.54    -0.138
     389.58     0.156
     390.61     0.211
     391.64    -0.049
     392.67    -0.238
     393.70     0.184
     394.73    -0.062
     395.76    -0.022
     396.79    -0.116
     397.82     0.003
     398.85    -0.055
     399.88     0.046
