%%            148.00000             3.00000    0             0.12700
% LAB  survey ------------------
% wanted position:  l, b, RA, DEC, and interpolated  NH
%148.00 ;   3.00 ;  62.01 ;  55.99 ;  0.459E+22
% nearest position: l, b, RA, DEC, and observed NH
%148.00 ;   3.00 ;  62.01 ;  55.99 ;  0.459E+22
% GASS III survey --------------
% NH - median within 6 arcmin radius   0.00    
% NH - mean within specified beam      0.00    
% EBHIS survey -----------------
% NH  within specified beam           0.464E+22
%%EBHIS   621  datapoints: v_lsr [km/s] and T_B [K]
    -399.25     0.030
    -397.96    -0.167
    -396.68     0.029
    -395.39    -0.052
    -394.10    -0.113
    -392.81    -0.124
    -391.52    -0.071
    -390.23     0.015
    -388.95     0.077
    -387.66    -0.046
    -386.37    -0.119
    -385.08     0.046
    -383.79    -0.075
    -382.50     0.030
    -381.22     0.028
    -379.93    -0.107
    -378.64    -0.039
    -377.35    -0.066
    -376.06     0.002
    -374.78     0.014
    -373.49     0.044
    -372.20    -0.146
    -370.91    -0.053
    -369.62    -0.064
    -368.33    -0.065
    -367.05     0.052
    -365.76    -0.107
    -364.47    -0.027
    -363.18    -0.040
    -361.89    -0.031
    -360.60    -0.054
    -359.32    -0.009
    -358.03     0.059
    -356.74    -0.004
    -355.45    -0.027
    -354.16    -0.097
    -352.88     0.079
    -351.59     0.025
    -350.30     0.008
    -349.01     0.137
    -347.72     0.043
    -346.43    -0.100
    -345.15    -0.038
    -343.86    -0.055
    -342.57    -0.033
    -341.28    -0.010
    -339.99     0.077
    -338.70     0.099
    -337.42     0.061
    -336.13     0.196
    -334.84     0.098
    -333.55     0.011
    -332.26     0.114
    -330.98     0.053
    -329.69     0.098
    -328.40     0.062
    -327.11     0.011
    -325.82     0.027
    -324.53    -0.017
    -323.25     0.037
    -321.96    -0.010
    -320.67     0.002
    -319.38     0.120
    -318.09    -0.060
    -316.80    -0.012
    -315.52    -0.082
    -314.23    -0.038
    -312.94    -0.147
    -311.65     0.023
    -310.36    -0.028
    -309.08     0.084
    -307.79    -0.080
    -306.50     0.071
    -305.21    -0.005
    -303.92     0.084
    -302.63    -0.025
    -301.35    -0.005
    -300.06     0.147
    -298.77     0.048
    -297.48     0.097
    -296.19    -0.067
    -294.90    -0.119
    -293.62    -0.013
    -292.33    -0.023
    -291.04     0.055
    -289.75     0.033
    -288.46    -0.092
    -287.18     0.016
    -285.89    -0.175
    -284.60    -0.200
    -283.31    -0.004
    -282.02     0.006
    -280.73     0.066
    -279.45    -0.011
    -278.16    -0.113
    -276.87    -0.001
    -275.58     0.062
    -274.29     0.038
    -273.00    -0.000
    -271.72    -0.016
    -270.43    -0.175
    -269.14    -0.023
    -267.85     0.025
    -266.56     0.097
    -265.28     0.046
    -263.99    -0.081
    -262.70     0.023
    -261.41     0.032
    -260.12    -0.082
    -258.83    -0.097
    -257.55    -0.020
    -256.26    -0.133
    -254.97    -0.022
    -253.68    -0.025
    -252.39    -0.073
    -251.10    -0.001
    -249.82     0.082
    -248.53    -0.112
    -247.24     0.069
    -245.95    -0.031
    -244.66     0.100
    -243.38     0.021
    -242.09     0.008
    -240.80     0.067
    -239.51    -0.111
    -238.22    -0.014
    -236.93    -0.023
    -235.65     0.034
    -234.36     0.118
    -233.07    -0.021
    -231.78     0.046
    -230.49     0.175
    -229.20     0.043
    -227.92     0.026
    -226.63     0.077
    -225.34     0.024
    -224.05    -0.013
    -222.76    -0.045
    -221.48    -0.019
    -220.19    -0.013
    -218.90    -0.070
    -217.61    -0.156
    -216.32    -0.181
    -215.03    -0.170
    -213.75     0.010
    -212.46     0.051
    -211.17     0.015
    -209.88    -0.086
    -208.59     0.023
    -207.30     0.035
    -206.02    -0.001
    -204.73    -0.057
    -203.44    -0.097
    -202.15    -0.003
    -200.86     0.066
    -199.58     0.169
    -198.29     0.187
    -197.00     0.050
    -195.71     0.080
    -194.42     0.019
    -193.13    -0.060
    -191.85    -0.052
    -190.56     0.028
    -189.27     0.030
    -187.98     0.057
    -186.69     0.003
    -185.40     0.022
    -184.12    -0.074
    -182.83    -0.114
    -181.54    -0.023
    -180.25     0.042
    -178.96    -0.065
    -177.68     0.069
    -176.39     0.094
    -175.10     0.005
    -173.81    -0.123
    -172.52     0.046
    -171.23    -0.048
    -169.95    -0.050
    -168.66     0.091
    -167.37    -0.012
    -166.08     0.028
    -164.79    -0.123
    -163.50    -0.039
    -162.22     0.049
    -160.93     0.013
    -159.64    -0.003
    -158.35     0.174
    -157.06     0.016
    -155.78     0.045
    -154.49     0.202
    -153.20     0.025
    -151.91    -0.078
    -150.62     0.092
    -149.33     0.058
    -148.05     0.083
    -146.76     0.136
    -145.47     0.024
    -144.18     0.178
    -142.89     0.208
    -141.60     0.137
    -140.32     0.200
    -139.03     0.172
    -137.74     0.129
    -136.45     0.157
    -135.16     0.106
    -133.88     0.169
    -132.59     0.007
    -131.30     0.151
    -130.01     0.231
    -128.72     0.351
    -127.43     0.351
    -126.15     0.294
    -124.86     0.249
    -123.57     0.208
    -122.28     0.242
    -120.99     0.442
    -119.70     0.325
    -118.42     0.377
    -117.13     0.355
    -115.84     0.222
    -114.55     0.261
    -113.26     0.342
    -111.98     0.253
    -110.69     0.338
    -109.40     0.485
    -108.11     0.360
    -106.82     0.347
    -105.53     0.270
    -104.25     0.378
    -102.96     0.440
    -101.67     0.471
    -100.38     0.481
     -99.09     0.491
     -97.80     0.495
     -96.52     0.599
     -95.23     0.535
     -93.94     0.686
     -92.65     0.669
     -91.36     0.749
     -90.08     0.848
     -88.79     0.994
     -87.50     1.387
     -86.21     1.331
     -84.92     1.467
     -83.63     1.747
     -82.35     1.808
     -81.06     1.868
     -79.77     2.423
     -78.48     2.823
     -77.19     3.561
     -75.90     4.709
     -74.62     6.034
     -73.33     7.377
     -72.04     7.855
     -70.75     6.673
     -69.46     6.425
     -68.18     6.929
     -66.89     6.975
     -65.60     6.743
     -64.31     7.392
     -63.02     9.757
     -61.73    13.635
     -60.45    19.160
     -59.16    25.452
     -57.87    32.869
     -56.58    40.661
     -55.29    48.028
     -54.00    52.169
     -52.72    51.678
     -51.43    45.508
     -50.14    37.327
     -48.85    31.247
     -47.56    28.643
     -46.28    29.682
     -44.99    34.347
     -43.70    42.106
     -42.41    48.489
     -41.12    51.338
     -39.83    50.970
     -38.55    47.708
     -37.26    42.370
     -35.97    35.680
     -34.68    32.541
     -33.39    37.463
     -32.10    46.462
     -30.82    44.307
     -29.53    31.986
     -28.24    23.649
     -26.95    19.826
     -25.66    17.468
     -24.38    15.451
     -23.09    13.396
     -21.80    11.894
     -20.51    11.143
     -19.22    11.083
     -17.93    11.472
     -16.65    12.887
     -15.36    17.347
     -14.07    27.293
     -12.78    39.605
     -11.49    47.808
     -10.20    50.734
      -8.92    50.169
      -7.63    45.238
      -6.34    40.340
      -5.05    37.887
      -3.76    36.569
      -2.48    36.865
      -1.19    35.235
       0.10    33.561
       1.39    35.196
       2.68    36.352
       3.97    37.444
       5.25    39.776
       6.54    31.565
       7.83    16.523
       9.12     6.164
      10.41     3.196
      11.70     2.068
      12.98     1.509
      14.27     1.207
      15.56     0.945
      16.85     0.777
      18.14     0.675
      19.42     0.381
      20.71     0.391
      22.00     0.255
      23.29     0.427
      24.58     0.291
      25.87     0.257
      27.15     0.205
      28.44     0.171
      29.73     0.027
      31.02     0.096
      32.31     0.045
      33.60     0.111
      34.88     0.149
      36.17    -0.023
      37.46     0.176
      38.75     0.144
      40.04     0.122
      41.32     0.078
      42.61     0.031
      43.90     0.041
      45.19     0.042
      46.48     0.009
      47.77    -0.024
      49.05     0.007
      50.34     0.095
      51.63    -0.004
      52.92     0.015
      54.21     0.080
      55.50     0.044
      56.78    -0.079
      58.07     0.001
      59.36    -0.012
      60.65    -0.021
      61.94    -0.110
      63.22     0.027
      64.51    -0.088
      65.80    -0.033
      67.09     0.064
      68.38     0.137
      69.67     0.134
      70.95     0.010
      72.24    -0.082
      73.53     0.005
      74.82     0.021
      76.11     0.075
      77.40     0.004
      78.68    -0.148
      79.97    -0.023
      81.26    -0.055
      82.55    -0.175
      83.84    -0.003
      85.12    -0.031
      86.41    -0.031
      87.70    -0.065
      88.99    -0.024
      90.28     0.032
      91.57    -0.049
      92.85    -0.046
      94.14    -0.034
      95.43    -0.134
      96.72     0.125
      98.01    -0.014
      99.30     0.017
     100.58    -0.054
     101.87    -0.012
     103.16     0.039
     104.45     0.082
     105.74     0.015
     107.02    -0.000
     108.31     0.016
     109.60     0.046
     110.89    -0.088
     112.18     0.011
     113.47     0.012
     114.75    -0.009
     116.04    -0.048
     117.33    -0.140
     118.62     0.104
     119.91    -0.000
     121.20     0.076
     122.48     0.087
     123.77     0.011
     125.06    -0.044
     126.35    -0.037
     127.64    -0.034
     128.92     0.042
     130.21    -0.077
     131.50    -0.011
     132.79     0.006
     134.08     0.016
     135.37    -0.016
     136.65    -0.028
     137.94    -0.143
     139.23    -0.071
     140.52     0.058
     141.81     0.086
     143.09     0.026
     144.38     0.043
     145.67     0.011
     146.96    -0.081
     148.25    -0.043
     149.54     0.195
     150.82     0.118
     152.11     0.146
     153.40    -0.043
     154.69     0.011
     155.98     0.084
     157.27     0.035
     158.55    -0.029
     159.84     0.069
     161.13     0.021
     162.42     0.071
     163.71    -0.039
     164.99     0.160
     166.28    -0.010
     167.57     0.114
     168.86     0.055
     170.15     0.187
     171.44     0.050
     172.72    -0.119
     174.01    -0.039
     175.30     0.070
     176.59     0.053
     177.88    -0.034
     179.17    -0.013
     180.45     0.056
     181.74     0.139
     183.03     0.073
     184.32    -0.088
     185.61    -0.015
     186.89    -0.118
     188.18    -0.105
     189.47    -0.003
     190.76     0.028
     192.05     0.046
     193.34    -0.175
     194.62     0.017
     195.91     0.030
     197.20    -0.012
     198.49    -0.116
     199.78     0.093
     201.07     0.025
     202.35     0.082
     203.64     0.029
     204.93     0.114
     206.22     0.028
     207.51    -0.023
     208.79    -0.072
     210.08     0.078
     211.37    -0.068
     212.66     0.026
     213.95    -0.029
     215.24    -0.035
     216.52     0.030
     217.81    -0.006
     219.10    -0.058
     220.39    -0.078
     221.68    -0.015
     222.97    -0.090
     224.25    -0.005
     225.54    -0.060
     226.83    -0.002
     228.12     0.061
     229.41    -0.014
     230.69    -0.034
     231.98     0.042
     233.27    -0.027
     234.56     0.013
     235.85    -0.011
     237.14     0.124
     238.42     0.055
     239.71    -0.065
     241.00    -0.060
     242.29    -0.105
     243.58     0.058
     244.87    -0.026
     246.15     0.104
     247.44     0.079
     248.73     0.037
     250.02    -0.083
     251.31     0.126
     252.59     0.060
     253.88     0.025
     255.17    -0.065
     256.46     0.029
     257.75     0.124
     259.04     0.066
     260.32    -0.063
     261.61    -0.027
     262.90     0.014
     264.19     0.010
     265.48     0.086
     266.77     0.009
     268.05     0.043
     269.34     0.060
     270.63    -0.162
     271.92    -0.075
     273.21    -0.004
     274.49     0.132
     275.78     0.189
     277.07     0.062
     278.36     0.006
     279.65     0.071
     280.94     0.129
     282.22    -0.144
     283.51    -0.019
     284.80     0.029
     286.09     0.040
     287.38    -0.021
     288.67    -0.010
     289.95     0.032
     291.24     0.022
     292.53    -0.108
     293.82    -0.021
     295.11    -0.022
     296.39    -0.139
     297.68     0.025
     298.97    -0.029
     300.26    -0.078
     301.55    -0.060
     302.84    -0.003
     304.12    -0.141
     305.41    -0.042
     306.70     0.045
     307.99    -0.124
     309.28     0.124
     310.57     0.073
     311.85    -0.127
     313.14     0.001
     314.43     0.153
     315.72    -0.067
     317.01    -0.015
     318.29    -0.000
     319.58    -0.026
     320.87     0.026
     322.16     0.020
     323.45    -0.117
     324.74    -0.064
     326.02    -0.071
     327.31     0.137
     328.60    -0.015
     329.89     0.024
     331.18    -0.183
     332.47    -0.050
     333.75     0.036
     335.04    -0.082
     336.33    -0.045
     337.62    -0.104
     338.91    -0.006
     340.19     0.217
     341.48    -0.043
     342.77    -0.037
     344.06     0.044
     345.35    -0.083
     346.64    -0.096
     347.92    -0.082
     349.21     0.076
     350.50     0.001
     351.79    -0.083
     353.08    -0.050
     354.37     0.048
     355.65    -0.010
     356.94     0.064
     358.23    -0.048
     359.52     0.025
     360.81     0.145
     362.09    -0.053
     363.38    -0.048
     364.67     0.089
     365.96     0.067
     367.25     0.028
     368.54     0.107
     369.82    -0.059
     371.11    -0.008
     372.40     0.108
     373.69     0.052
     374.98     0.085
     376.27    -0.014
     377.55    -0.139
     378.84    -0.101
     380.13     0.091
     381.42     0.148
     382.71     0.038
     383.99    -0.034
     385.28    -0.019
     386.57     0.020
     387.86    -0.029
     389.15     0.108
     390.44    -0.022
     391.72    -0.111
     393.01    -0.206
     394.30     0.010
     395.59     0.102
     396.88     0.111
     398.17    -0.044
     399.45     0.054
%%GASS      0  datapoints: v_lsr [km/s] and T_B [K] for beam weighted average and median within 6 arcmin
%%LAB     777  datapoints: v_lsr [km/s] and T_B [K]
    -399.88    -0.067
    -398.85    -0.069
    -397.81    -0.018
    -396.78    -0.028
    -395.75    -0.048
    -394.72    -0.053
    -393.69    -0.008
    -392.66    -0.096
    -391.63    -0.119
    -390.60    -0.049
    -389.57     0.029
    -388.54     0.026
    -387.51     0.010
    -386.48    -0.089
    -385.45    -0.018
    -384.42    -0.074
    -383.39     0.047
    -382.36    -0.116
    -381.32    -0.057
    -380.29    -0.002
    -379.26    -0.059
    -378.23    -0.012
    -377.20     0.122
    -376.17     0.035
    -375.14     0.186
    -374.11     0.136
    -373.08    -0.079
    -372.05     0.111
    -371.02     0.163
    -369.99    -0.172
    -368.96     0.041
    -367.93     0.088
    -366.90    -0.139
    -365.87     0.152
    -364.84    -0.087
    -363.80    -0.102
    -362.77     0.015
    -361.74     0.221
    -360.71     0.082
    -359.68     0.018
    -358.65     0.151
    -357.62    -0.085
    -356.59    -0.073
    -355.56     0.021
    -354.53     0.156
    -353.50     0.043
    -352.47     0.025
    -351.44    -0.007
    -350.41     0.032
    -349.38    -0.219
    -348.35    -0.064
    -347.31    -0.031
    -346.28     0.122
    -345.25    -0.040
    -344.22    -0.004
    -343.19     0.035
    -342.16     0.009
    -341.13     0.102
    -340.10     0.001
    -339.07    -0.152
    -338.04     0.111
    -337.01     0.222
    -335.98    -0.009
    -334.95    -0.127
    -333.92     0.066
    -332.89    -0.162
    -331.86     0.089
    -330.83    -0.069
    -329.79    -0.002
    -328.76     0.002
    -327.73    -0.002
    -326.70    -0.014
    -325.67     0.014
    -324.64    -0.136
    -323.61    -0.011
    -322.58    -0.026
    -321.55     0.026
    -320.52    -0.037
    -319.49    -0.125
    -318.46    -0.151
    -317.43    -0.119
    -316.40    -0.007
    -315.37    -0.010
    -314.34    -0.119
    -313.30     0.161
    -312.27    -0.073
    -311.24     0.115
    -310.21    -0.115
    -309.18     0.039
    -308.15    -0.080
    -307.12     0.242
    -306.09    -0.045
    -305.06     0.072
    -304.03    -0.077
    -303.00    -0.045
    -301.97     0.055
    -300.94     0.043
    -299.91     0.127
    -298.88     0.030
    -297.85    -0.066
    -296.82    -0.074
    -295.78    -0.131
    -294.75     0.096
    -293.72     0.067
    -292.69    -0.032
    -291.66    -0.041
    -290.63     0.044
    -289.60    -0.033
    -288.57    -0.127
    -287.54    -0.027
    -286.51     0.104
    -285.48    -0.074
    -284.45    -0.040
    -283.42    -0.048
    -282.39    -0.065
    -281.36    -0.044
    -280.33     0.117
    -279.29     0.067
    -278.26    -0.073
    -277.23    -0.190
    -276.20     0.063
    -275.17     0.007
    -274.14    -0.081
    -273.11    -0.115
    -272.08    -0.001
    -271.05    -0.031
    -270.02     0.043
    -268.99    -0.044
    -267.96     0.075
    -266.93    -0.085
    -265.90     0.024
    -264.87    -0.048
    -263.84     0.104
    -262.81    -0.003
    -261.77     0.143
    -260.74     0.038
    -259.71    -0.043
    -258.68    -0.097
    -257.65    -0.027
    -256.62    -0.058
    -255.59     0.106
    -254.56    -0.041
    -253.53     0.032
    -252.50     0.043
    -251.47     0.094
    -250.44    -0.090
    -249.41     0.023
    -248.38     0.137
    -247.35     0.051
    -246.32     0.087
    -245.28    -0.149
    -244.25     0.123
    -243.22     0.163
    -242.19    -0.095
    -241.16    -0.052
    -240.13    -0.070
    -239.10     0.133
    -238.07     0.128
    -237.04    -0.028
    -236.01     0.017
    -234.98     0.018
    -233.95     0.016
    -232.92     0.063
    -231.89    -0.028
    -230.86     0.128
    -229.83     0.043
    -228.79     0.131
    -227.76     0.165
    -226.73     0.060
    -225.70     0.013
    -224.67    -0.032
    -223.64    -0.065
    -222.61     0.157
    -221.58    -0.180
    -220.55     0.054
    -219.52    -0.071
    -218.49     0.052
    -217.46    -0.007
    -216.43    -0.060
    -215.40     0.021
    -214.37     0.159
    -213.34    -0.083
    -212.31     0.081
    -211.27    -0.052
    -210.24    -0.015
    -209.21     0.047
    -208.18     0.106
    -207.15    -0.015
    -206.12     0.053
    -205.09     0.002
    -204.06     0.134
    -203.03    -0.009
    -202.00     0.171
    -200.97    -0.145
    -199.94     0.101
    -198.91     0.171
    -197.88     0.072
    -196.85    -0.027
    -195.82     0.026
    -194.78    -0.127
    -193.75    -0.279
    -192.72     0.055
    -191.69     0.047
    -190.66     0.039
    -189.63     0.035
    -188.60    -0.091
    -187.57    -0.068
    -186.54    -0.085
    -185.51     0.059
    -184.48    -0.127
    -183.45     0.058
    -182.42     0.178
    -181.39     0.013
    -180.36     0.047
    -179.33    -0.056
    -178.30    -0.277
    -177.26    -0.016
    -176.23     0.101
    -175.20     0.052
    -174.17     0.076
    -173.14     0.026
    -172.11     0.077
    -171.08     0.023
    -170.05     0.062
    -169.02    -0.035
    -167.99    -0.125
    -166.96    -0.013
    -165.93    -0.039
    -164.90     0.155
    -163.87     0.120
    -162.84    -0.006
    -161.81     0.005
    -160.77     0.068
    -159.74     0.081
    -158.71     0.127
    -157.68    -0.122
    -156.65     0.130
    -155.62    -0.011
    -154.59    -0.075
    -153.56    -0.009
    -152.53    -0.049
    -151.50    -0.113
    -150.47     0.050
    -149.44    -0.004
    -148.41     0.026
    -147.38     0.101
    -146.35    -0.148
    -145.32     0.042
    -144.29    -0.058
    -143.25     0.014
    -142.22     0.014
    -141.19     0.148
    -140.16     0.224
    -139.13    -0.032
    -138.10    -0.032
    -137.07    -0.073
    -136.04     0.122
    -135.01     0.223
    -133.98     0.191
    -132.95     0.294
    -131.92     0.174
    -130.89     0.169
    -129.86     0.407
    -128.83     0.237
    -127.80     0.364
    -126.76     0.176
    -125.73     0.254
    -124.70     0.346
    -123.67     0.481
    -122.64     0.408
    -121.61     0.477
    -120.58     0.511
    -119.55     0.385
    -118.52     0.377
    -117.49     0.371
    -116.46     0.233
    -115.43     0.587
    -114.40     0.426
    -113.37     0.446
    -112.34     0.436
    -111.31     0.383
    -110.28     0.352
    -109.24     0.567
    -108.21     0.465
    -107.18     0.394
    -106.15     0.409
    -105.12     0.375
    -104.09     0.282
    -103.06     0.493
    -102.03     0.333
    -101.00     0.508
     -99.97     0.523
     -98.94     0.554
     -97.91     0.632
     -96.88     0.597
     -95.85     0.574
     -94.82     0.666
     -93.79     0.630
     -92.75     0.657
     -91.72     0.842
     -90.69     0.879
     -89.66     1.043
     -88.63     1.186
     -87.60     1.106
     -86.57     1.287
     -85.54     1.328
     -84.51     1.537
     -83.48     1.572
     -82.45     1.792
     -81.42     1.808
     -80.39     2.089
     -79.36     2.293
     -78.33     2.682
     -77.30     3.509
     -76.26     4.057
     -75.23     4.950
     -74.20     5.901
     -73.17     6.761
     -72.14     6.966
     -71.11     6.472
     -70.08     6.458
     -69.05     6.376
     -68.02     6.760
     -66.99     6.842
     -65.96     6.807
     -64.93     7.104
     -63.90     8.264
     -62.87    10.847
     -61.84    14.607
     -60.81    19.077
     -59.78    24.316
     -58.74    29.459
     -57.71    34.893
     -56.68    39.835
     -55.65    44.281
     -54.62    46.635
     -53.59    47.072
     -52.56    45.562
     -51.53    42.162
     -50.50    37.071
     -49.47    33.031
     -48.44    30.506
     -47.41    29.790
     -46.38    30.908
     -45.35    34.093
     -44.32    38.966
     -43.29    44.268
     -42.25    49.383
     -41.22    52.264
     -40.19    52.514
     -39.16    51.465
     -38.13    48.305
     -37.10    43.617
     -36.07    38.699
     -35.04    35.252
     -34.01    34.420
     -32.98    37.322
     -31.95    40.033
     -30.92    38.958
     -29.89    32.761
     -28.86    26.582
     -27.83    22.348
     -26.80    19.111
     -25.77    16.891
     -24.73    15.035
     -23.70    14.143
     -22.67    13.343
     -21.64    12.445
     -20.61    11.861
     -19.58    11.186
     -18.55    11.251
     -17.52    12.590
     -16.49    14.334
     -15.46    17.709
     -14.43    23.086
     -13.40    31.129
     -12.37    39.410
     -11.34    46.352
     -10.31    49.638
      -9.28    49.072
      -8.24    46.495
      -7.21    43.129
      -6.18    39.752
      -5.15    38.129
      -4.12    36.514
      -3.09    35.731
      -2.06    35.521
      -1.03    34.618
       0.00    33.725
       1.03    34.813
       2.06    36.561
       3.09    36.912
       4.12    37.645
       5.15    39.244
       6.18    35.405
       7.21    23.794
       8.24    12.258
       9.28     5.965
      10.31     3.685
      11.34     2.451
      12.37     1.985
      13.40     1.338
      14.43     1.177
      15.46     0.977
      16.49     0.548
      17.52     0.674
      18.55     0.654
      19.58     0.404
      20.61     0.380
      21.64     0.250
      22.67     0.192
      23.70     0.179
      24.73     0.262
      25.77     0.191
      26.80    -0.002
      27.83    -0.021
      28.86     0.103
      29.89     0.025
      30.92     0.053
      31.95     0.179
      32.98     0.030
      34.01     0.138
      35.04     0.068
      36.07    -0.053
      37.10    -0.035
      38.13    -0.017
      39.16    -0.026
      40.19    -0.040
      41.22    -0.021
      42.25     0.173
      43.29     0.167
      44.32    -0.052
      45.35     0.016
      46.38    -0.076
      47.41    -0.058
      48.44     0.151
      49.47    -0.094
      50.50     0.186
      51.53    -0.019
      52.56    -0.165
      53.59     0.087
      54.62     0.007
      55.65     0.142
      56.68     0.132
      57.71    -0.004
      58.74     0.012
      59.78    -0.088
      60.81    -0.037
      61.84     0.100
      62.87     0.096
      63.90    -0.095
      64.93    -0.164
      65.96     0.129
      66.99    -0.023
      68.02     0.075
      69.05     0.006
      70.08     0.102
      71.11    -0.224
      72.14    -0.011
      73.17     0.163
      74.20     0.069
      75.23     0.258
      76.27    -0.137
      77.30    -0.019
      78.33    -0.049
      79.36     0.089
      80.39     0.066
      81.42     0.002
      82.45     0.016
      83.48     0.119
      84.51     0.219
      85.54    -0.105
      86.57     0.096
      87.60    -0.019
      88.63     0.147
      89.66    -0.127
      90.69    -0.046
      91.72     0.194
      92.75     0.167
      93.79    -0.071
      94.82     0.091
      95.85    -0.013
      96.88     0.143
      97.91    -0.108
      98.94     0.103
      99.97    -0.159
     101.00     0.036
     102.03    -0.023
     103.06     0.103
     104.09     0.083
     105.12     0.101
     106.15     0.176
     107.18    -0.045
     108.21    -0.079
     109.24     0.117
     110.28    -0.027
     111.31    -0.059
     112.34     0.107
     113.37     0.064
     114.40     0.050
     115.43    -0.102
     116.46     0.186
     117.49     0.081
     118.52     0.001
     119.55    -0.083
     120.58    -0.003
     121.61    -0.171
     122.64    -0.081
     123.67    -0.017
     124.70    -0.096
     125.73     0.131
     126.76    -0.087
     127.80    -0.057
     128.83    -0.012
     129.86     0.017
     130.89    -0.043
     131.92    -0.117
     132.95    -0.025
     133.98     0.056
     135.01    -0.058
     136.04    -0.011
     137.07     0.076
     138.10    -0.020
     139.13    -0.118
     140.16     0.027
     141.19     0.103
     142.22     0.181
     143.25    -0.060
     144.29    -0.020
     145.32     0.094
     146.35     0.259
     147.38    -0.080
     148.41     0.115
     149.44    -0.120
     150.47     0.042
     151.50    -0.065
     152.53     0.076
     153.56     0.059
     154.59    -0.028
     155.62    -0.163
     156.65    -0.102
     157.68     0.018
     158.71     0.014
     159.74     0.035
     160.77    -0.030
     161.81    -0.007
     162.84     0.103
     163.87     0.105
     164.90     0.039
     165.93    -0.135
     166.96     0.026
     167.99    -0.093
     169.02     0.203
     170.05    -0.019
     171.08     0.057
     172.11     0.085
     173.14     0.068
     174.17    -0.106
     175.20     0.076
     176.23    -0.071
     177.26    -0.078
     178.30    -0.048
     179.33     0.092
     180.36    -0.076
     181.39     0.083
     182.42     0.068
     183.45    -0.108
     184.48    -0.019
     185.51    -0.144
     186.54     0.085
     187.57     0.212
     188.60    -0.123
     189.63     0.065
     190.66     0.060
     191.69     0.002
     192.72     0.145
     193.75     0.114
     194.78    -0.035
     195.82     0.087
     196.85     0.064
     197.88    -0.115
     198.91    -0.125
     199.94     0.060
     200.97     0.022
     202.00    -0.152
     203.03    -0.125
     204.06     0.008
     205.09    -0.074
     206.12     0.036
     207.15    -0.015
     208.18     0.180
     209.21    -0.069
     210.24    -0.101
     211.27    -0.028
     212.31     0.061
     213.34    -0.184
     214.37     0.063
     215.40     0.103
     216.43     0.033
     217.46     0.158
     218.49    -0.057
     219.52    -0.019
     220.55     0.076
     221.58    -0.143
     222.61     0.046
     223.64     0.026
     224.67    -0.084
     225.70    -0.000
     226.73    -0.065
     227.76    -0.038
     228.79     0.021
     229.83    -0.091
     230.86    -0.057
     231.89    -0.036
     232.92     0.041
     233.95    -0.069
     234.98    -0.022
     236.01     0.186
     237.04    -0.060
     238.07    -0.164
     239.10     0.050
     240.13    -0.139
     241.16     0.009
     242.19    -0.040
     243.22    -0.064
     244.25    -0.107
     245.28    -0.112
     246.32     0.057
     247.35     0.033
     248.38     0.010
     249.41     0.028
     250.44     0.046
     251.47     0.136
     252.50     0.019
     253.53     0.078
     254.56     0.044
     255.59    -0.084
     256.62    -0.051
     257.65    -0.048
     258.68     0.028
     259.71    -0.057
     260.74     0.044
     261.77     0.130
     262.81    -0.070
     263.84     0.027
     264.87     0.004
     265.90    -0.027
     266.93     0.084
     267.96     0.103
     268.99     0.042
     270.02     0.043
     271.05    -0.019
     272.08    -0.127
     273.11     0.008
     274.14     0.115
     275.17     0.048
     276.20     0.032
     277.23    -0.005
     278.26     0.006
     279.29    -0.094
     280.33     0.055
     281.36    -0.059
     282.39    -0.067
     283.42    -0.026
     284.45     0.040
     285.48     0.054
     286.51    -0.010
     287.54    -0.115
     288.57    -0.000
     289.60     0.015
     290.63    -0.080
     291.66    -0.105
     292.69     0.059
     293.72     0.042
     294.75     0.133
     295.78     0.168
     296.82    -0.013
     297.85    -0.102
     298.88    -0.007
     299.91     0.043
     300.94     0.016
     301.97     0.080
     303.00    -0.019
     304.03    -0.042
     305.06    -0.052
     306.09    -0.061
     307.12    -0.090
     308.15    -0.198
     309.18     0.080
     310.21    -0.211
     311.24     0.115
     312.27    -0.038
     313.30     0.068
     314.34     0.010
     315.37     0.044
     316.40     0.087
     317.43    -0.033
     318.46    -0.019
     319.49     0.033
     320.52    -0.297
     321.55    -0.050
     322.58     0.168
     323.61    -0.031
     324.64     0.085
     325.67     0.001
     326.70     0.043
     327.73     0.211
     328.76    -0.040
     329.79     0.019
     330.83    -0.121
     331.86     0.283
     332.89    -0.171
     333.92     0.068
     334.95    -0.064
     335.98     0.080
     337.01    -0.241
     338.04    -0.028
     339.07     0.056
     340.10     0.016
     341.13     0.077
     342.16     0.058
     343.19     0.147
     344.22     0.117
     345.25    -0.054
     346.28     0.140
     347.31    -0.017
     348.35    -0.028
     349.38     0.084
     350.41    -0.158
     351.44    -0.057
     352.47     0.006
     353.50    -0.121
     354.53    -0.119
     355.56     0.047
     356.59     0.051
     357.62    -0.020
     358.65    -0.064
     359.68    -0.008
     360.71     0.020
     361.74    -0.053
     362.77     0.013
     363.80    -0.071
     364.84     0.075
     365.87     0.058
     366.90    -0.014
     367.93     0.066
     368.96     0.120
     369.99    -0.048
     371.02     0.060
     372.05    -0.011
     373.08     0.039
     374.11    -0.087
     375.14    -0.030
     376.17     0.032
     377.20     0.073
     378.23    -0.032
     379.26     0.041
     380.29    -0.088
     381.32     0.138
     382.36    -0.076
     383.39     0.054
     384.42     0.003
     385.45     0.035
     386.48     0.026
     387.51     0.001
     388.54     0.087
     389.57     0.054
     390.60    -0.149
     391.63    -0.019
     392.66     0.074
     393.69     0.006
     394.72     0.041
     395.75     0.107
     396.78     0.123
     397.81     0.039
     398.85     0.114
     399.88    -0.066
