%%            109.00000             0.00000    0             0.12700
% LAB  survey ------------------
% wanted position:  l, b, RA, DEC, and interpolated  NH
%109.00 ;   0.00 ; 344.31 ;  59.75 ;  0.751E+22
% nearest position: l, b, RA, DEC, and observed NH
%109.00 ;   0.00 ; 344.31 ;  59.75 ;  0.751E+22
% GASS III survey --------------
% NH - median within 6 arcmin radius   0.00    
% NH - mean within specified beam      0.00    
% EBHIS survey -----------------
% NH  within specified beam           0.736E+22
%%EBHIS   621  datapoints: v_lsr [km/s] and T_B [K]
    -399.25    -0.018
    -397.96     0.020
    -396.68    -0.012
    -395.39     0.036
    -394.10     0.093
    -392.81     0.023
    -391.52     0.041
    -390.23     0.051
    -388.95    -0.056
    -387.66    -0.040
    -386.37     0.011
    -385.08     0.103
    -383.79    -0.073
    -382.50    -0.012
    -381.22    -0.019
    -379.93    -0.031
    -378.64    -0.154
    -377.35     0.089
    -376.06    -0.072
    -374.78    -0.128
    -373.49     0.065
    -372.20     0.127
    -370.91    -0.021
    -369.62     0.100
    -368.33    -0.034
    -367.05    -0.077
    -365.76    -0.074
    -364.47     0.012
    -363.18     0.174
    -361.89     0.193
    -360.60     0.080
    -359.32    -0.017
    -358.03     0.006
    -356.74     0.059
    -355.45    -0.023
    -354.16     0.077
    -352.88    -0.003
    -351.59    -0.182
    -350.30    -0.098
    -349.01    -0.109
    -347.72     0.162
    -346.43    -0.080
    -345.15    -0.020
    -343.86     0.068
    -342.57     0.002
    -341.28    -0.236
    -339.99    -0.054
    -338.70     0.012
    -337.42    -0.083
    -336.13    -0.005
    -334.84     0.067
    -333.55     0.152
    -332.26     0.070
    -330.98     0.083
    -329.69     0.000
    -328.40     0.064
    -327.11     0.178
    -325.82     0.113
    -324.53     0.050
    -323.25    -0.136
    -321.96    -0.191
    -320.67    -0.064
    -319.38    -0.107
    -318.09     0.096
    -316.80     0.145
    -315.52    -0.128
    -314.23    -0.122
    -312.94     0.021
    -311.65    -0.004
    -310.36     0.055
    -309.08    -0.064
    -307.79    -0.066
    -306.50    -0.142
    -305.21    -0.123
    -303.92    -0.123
    -302.63    -0.042
    -301.35     0.021
    -300.06     0.129
    -298.77    -0.006
    -297.48    -0.041
    -296.19     0.114
    -294.90    -0.089
    -293.62     0.029
    -292.33     0.096
    -291.04     0.117
    -289.75     0.120
    -288.46     0.065
    -287.18    -0.047
    -285.89     0.003
    -284.60     0.003
    -283.31     0.011
    -282.02     0.015
    -280.73    -0.109
    -279.45     0.051
    -278.16     0.094
    -276.87     0.050
    -275.58     0.024
    -274.29    -0.070
    -273.00    -0.098
    -271.72    -0.083
    -270.43     0.071
    -269.14     0.031
    -267.85     0.048
    -266.56    -0.139
    -265.28    -0.060
    -263.99    -0.157
    -262.70    -0.043
    -261.41    -0.028
    -260.12     0.060
    -258.83     0.032
    -257.55    -0.031
    -256.26     0.232
    -254.97     0.105
    -253.68     0.113
    -252.39    -0.058
    -251.10    -0.019
    -249.82    -0.035
    -248.53    -0.025
    -247.24    -0.031
    -245.95     0.063
    -244.66     0.043
    -243.38     0.091
    -242.09     0.031
    -240.80    -0.071
    -239.51    -0.090
    -238.22     0.059
    -236.93     0.093
    -235.65     0.072
    -234.36     0.098
    -233.07     0.048
    -231.78    -0.038
    -230.49    -0.144
    -229.20    -0.049
    -227.92    -0.103
    -226.63     0.086
    -225.34     0.024
    -224.05     0.012
    -222.76     0.026
    -221.48    -0.107
    -220.19     0.050
    -218.90     0.172
    -217.61     0.048
    -216.32    -0.058
    -215.03     0.021
    -213.75     0.071
    -212.46    -0.054
    -211.17     0.052
    -209.88    -0.037
    -208.59    -0.127
    -207.30    -0.133
    -206.02    -0.113
    -204.73    -0.048
    -203.44     0.001
    -202.15     0.031
    -200.86    -0.064
    -199.58    -0.007
    -198.29    -0.109
    -197.00     0.019
    -195.71     0.027
    -194.42     0.090
    -193.13     0.004
    -191.85    -0.006
    -190.56     0.045
    -189.27    -0.009
    -187.98    -0.058
    -186.69     0.042
    -185.40     0.103
    -184.12    -0.029
    -182.83    -0.107
    -181.54    -0.024
    -180.25     0.009
    -178.96     0.095
    -177.68     0.143
    -176.39     0.075
    -175.10     0.189
    -173.81    -0.007
    -172.52    -0.127
    -171.23    -0.060
    -169.95     0.046
    -168.66     0.039
    -167.37    -0.037
    -166.08    -0.067
    -164.79     0.157
    -163.50     0.141
    -162.22     0.068
    -160.93     0.191
    -159.64     0.080
    -158.35     0.073
    -157.06     0.281
    -155.78     0.152
    -154.49     0.050
    -153.20     0.271
    -151.91     0.291
    -150.62     0.070
    -149.33     0.261
    -148.05     0.245
    -146.76     0.269
    -145.47     0.455
    -144.18     0.317
    -142.89     0.310
    -141.60     0.341
    -140.32     0.407
    -139.03     0.515
    -137.74     0.440
    -136.45     0.446
    -135.16     0.523
    -133.88     0.574
    -132.59     0.595
    -131.30     0.722
    -130.01     0.800
    -128.72     0.761
    -127.43     0.988
    -126.15     1.243
    -124.86     1.244
    -123.57     1.353
    -122.28     1.604
    -120.99     1.959
    -119.70     2.186
    -118.42     2.456
    -117.13     2.708
    -115.84     2.798
    -114.55     3.052
    -113.26     3.379
    -111.98     3.495
    -110.69     3.836
    -109.40     3.920
    -108.11     4.371
    -106.82     4.450
    -105.53     4.799
    -104.25     4.865
    -102.96     4.881
    -101.67     5.579
    -100.38     6.351
     -99.09     6.400
     -97.80     6.214
     -96.52     5.651
     -95.23     6.450
     -93.94     7.292
     -92.65     8.062
     -91.36     8.653
     -90.08     8.416
     -88.79     8.149
     -87.50     7.777
     -86.21     7.334
     -84.92     7.333
     -83.63     7.740
     -82.35     8.679
     -81.06    10.155
     -79.77    11.757
     -78.48    14.281
     -77.19    17.248
     -75.90    20.196
     -74.62    23.281
     -73.33    25.611
     -72.04    26.110
     -70.75    27.127
     -69.46    31.268
     -68.18    29.401
     -66.89    27.746
     -65.60    25.528
     -64.31    28.239
     -63.02    31.735
     -61.73    35.369
     -60.45    42.294
     -59.16    52.225
     -57.87    63.377
     -56.58    71.906
     -55.29    76.369
     -54.00    76.201
     -52.72    74.848
     -51.43    81.308
     -50.14    90.681
     -48.85    97.848
     -47.56    95.967
     -46.28    90.617
     -44.99    88.272
     -43.70    88.594
     -42.41    81.677
     -41.12    63.447
     -39.83    47.422
     -38.55    36.575
     -37.26    30.833
     -35.97    27.431
     -34.68    24.514
     -33.39    19.741
     -32.10    15.820
     -30.82    13.089
     -29.53    11.019
     -28.24     9.943
     -26.95     8.687
     -25.66     8.046
     -24.38     7.628
     -23.09     7.611
     -21.80     8.200
     -20.51     9.059
     -19.22     9.624
     -17.93    10.732
     -16.65    11.727
     -15.36    14.062
     -14.07    17.086
     -12.78    21.954
     -11.49    29.484
     -10.20    43.142
      -8.92    60.503
      -7.63    76.383
      -6.34    87.168
      -5.05    91.621
      -3.76    90.974
      -2.48    87.845
      -1.19    83.221
       0.10    74.216
       1.39    60.519
       2.68    46.480
       3.97    35.305
       5.25    25.856
       6.54    18.548
       7.83    13.198
       9.12     9.226
      10.41     6.520
      11.70     4.641
      12.98     3.425
      14.27     2.412
      15.56     1.835
      16.85     1.264
      18.14     0.958
      19.42     0.789
      20.71     0.424
      22.00     0.352
      23.29     0.357
      24.58     0.190
      25.87     0.260
      27.15     0.232
      28.44     0.151
      29.73     0.123
      31.02    -0.044
      32.31    -0.149
      33.60     0.083
      34.88     0.109
      36.17    -0.013
      37.46    -0.014
      38.75    -0.060
      40.04    -0.033
      41.32     0.098
      42.61     0.145
      43.90     0.089
      45.19    -0.046
      46.48    -0.074
      47.77    -0.083
      49.05     0.009
      50.34     0.103
      51.63     0.072
      52.92     0.047
      54.21    -0.020
      55.50     0.107
      56.78    -0.055
      58.07     0.053
      59.36    -0.119
      60.65    -0.112
      61.94    -0.195
      63.22     0.105
      64.51    -0.170
      65.80     0.021
      67.09    -0.006
      68.38     0.014
      69.67    -0.008
      70.95    -0.075
      72.24     0.150
      73.53    -0.068
      74.82    -0.073
      76.11    -0.004
      77.40     0.064
      78.68     0.076
      79.97    -0.112
      81.26     0.123
      82.55     0.015
      83.84     0.104
      85.12     0.039
      86.41    -0.150
      87.70    -0.062
      88.99    -0.089
      90.28     0.072
      91.57     0.020
      92.85    -0.006
      94.14     0.043
      95.43     0.092
      96.72     0.010
      98.01    -0.040
      99.30     0.039
     100.58     0.023
     101.87     0.017
     103.16    -0.144
     104.45     0.068
     105.74     0.123
     107.02    -0.105
     108.31    -0.177
     109.60    -0.039
     110.89     0.108
     112.18    -0.033
     113.47    -0.022
     114.75    -0.107
     116.04     0.008
     117.33     0.142
     118.62     0.062
     119.91     0.005
     121.20     0.131
     122.48     0.045
     123.77    -0.164
     125.06     0.007
     126.35    -0.055
     127.64     0.042
     128.92    -0.033
     130.21    -0.094
     131.50    -0.048
     132.79     0.092
     134.08     0.016
     135.37    -0.106
     136.65    -0.082
     137.94    -0.048
     139.23    -0.101
     140.52    -0.143
     141.81     0.158
     143.09     0.143
     144.38    -0.006
     145.67     0.022
     146.96    -0.153
     148.25    -0.113
     149.54    -0.019
     150.82    -0.041
     152.11    -0.046
     153.40    -0.028
     154.69    -0.049
     155.98    -0.031
     157.27     0.062
     158.55    -0.079
     159.84    -0.126
     161.13    -0.032
     162.42     0.074
     163.71     0.168
     164.99     0.163
     166.28     0.097
     167.57    -0.059
     168.86     0.073
     170.15    -0.129
     171.44    -0.077
     172.72    -0.023
     174.01    -0.109
     175.30    -0.079
     176.59    -0.017
     177.88    -0.048
     179.17    -0.143
     180.45     0.038
     181.74     0.143
     183.03     0.011
     184.32    -0.028
     185.61    -0.094
     186.89     0.120
     188.18     0.101
     189.47    -0.024
     190.76     0.052
     192.05    -0.175
     193.34    -0.010
     194.62    -0.032
     195.91    -0.005
     197.20     0.014
     198.49    -0.075
     199.78     0.005
     201.07     0.043
     202.35    -0.029
     203.64     0.021
     204.93    -0.045
     206.22    -0.151
     207.51    -0.023
     208.79    -0.101
     210.08     0.008
     211.37    -0.153
     212.66     0.017
     213.95     0.025
     215.24    -0.013
     216.52     0.057
     217.81     0.096
     219.10     0.062
     220.39     0.095
     221.68     0.152
     222.97    -0.128
     224.25    -0.009
     225.54     0.039
     226.83    -0.114
     228.12    -0.072
     229.41     0.031
     230.69    -0.096
     231.98     0.133
     233.27     0.020
     234.56     0.057
     235.85     0.080
     237.14    -0.002
     238.42     0.081
     239.71     0.237
     241.00     0.053
     242.29    -0.054
     243.58     0.046
     244.87    -0.115
     246.15    -0.057
     247.44     0.014
     248.73    -0.049
     250.02    -0.055
     251.31     0.088
     252.59     0.013
     253.88     0.068
     255.17     0.219
     256.46     0.061
     257.75     0.057
     259.04    -0.016
     260.32    -0.032
     261.61     0.095
     262.90    -0.056
     264.19     0.054
     265.48     0.063
     266.77     0.074
     268.05     0.036
     269.34     0.067
     270.63     0.086
     271.92    -0.002
     273.21     0.079
     274.49    -0.036
     275.78     0.167
     277.07    -0.001
     278.36    -0.044
     279.65     0.070
     280.94     0.107
     282.22     0.002
     283.51    -0.162
     284.80    -0.028
     286.09    -0.051
     287.38     0.087
     288.67     0.014
     289.95    -0.073
     291.24     0.048
     292.53     0.167
     293.82     0.042
     295.11    -0.052
     296.39     0.059
     297.68    -0.066
     298.97    -0.112
     300.26     0.105
     301.55    -0.006
     302.84    -0.062
     304.12    -0.039
     305.41    -0.037
     306.70    -0.047
     307.99     0.059
     309.28    -0.130
     310.57    -0.037
     311.85    -0.001
     313.14    -0.076
     314.43    -0.043
     315.72     0.133
     317.01     0.035
     318.29     0.021
     319.58     0.001
     320.87    -0.021
     322.16     0.058
     323.45    -0.071
     324.74    -0.047
     326.02     0.011
     327.31    -0.083
     328.60    -0.176
     329.89    -0.088
     331.18    -0.113
     332.47    -0.059
     333.75     0.017
     335.04     0.029
     336.33    -0.092
     337.62     0.090
     338.91    -0.047
     340.19    -0.024
     341.48     0.001
     342.77    -0.090
     344.06    -0.001
     345.35     0.070
     346.64     0.068
     347.92     0.037
     349.21     0.036
     350.50     0.081
     351.79    -0.110
     353.08    -0.086
     354.37     0.100
     355.65     0.060
     356.94     0.045
     358.23    -0.098
     359.52     0.075
     360.81     0.069
     362.09     0.076
     363.38     0.072
     364.67    -0.020
     365.96    -0.001
     367.25     0.106
     368.54    -0.015
     369.82     0.009
     371.11     0.008
     372.40    -0.131
     373.69    -0.089
     374.98     0.020
     376.27    -0.096
     377.55    -0.102
     378.84    -0.010
     380.13    -0.031
     381.42    -0.076
     382.71    -0.053
     383.99    -0.036
     385.28    -0.146
     386.57    -0.204
     387.86     0.157
     389.15     0.151
     390.44    -0.107
     391.72    -0.052
     393.01     0.033
     394.30    -0.053
     395.59    -0.054
     396.88     0.125
     398.17     0.123
     399.45    -0.012
%%GASS      0  datapoints: v_lsr [km/s] and T_B [K] for beam weighted average and median within 6 arcmin
%%LAB     777  datapoints: v_lsr [km/s] and T_B [K]
    -399.84    -0.144
    -398.80     0.078
    -397.77    -0.027
    -396.74    -0.041
    -395.71    -0.017
    -394.68     0.021
    -393.65     0.163
    -392.62     0.010
    -391.59     0.007
    -390.56     0.098
    -389.53    -0.118
    -388.50    -0.014
    -387.47     0.009
    -386.44     0.022
    -385.41    -0.133
    -384.38    -0.006
    -383.35    -0.003
    -382.32     0.050
    -381.29     0.015
    -380.26     0.066
    -379.23     0.013
    -378.19     0.074
    -377.16    -0.026
    -376.13    -0.047
    -375.10     0.181
    -374.07    -0.062
    -373.04     0.107
    -372.01    -0.159
    -370.98     0.025
    -369.95     0.116
    -368.92    -0.112
    -367.89     0.001
    -366.86     0.081
    -365.83    -0.076
    -364.80     0.118
    -363.77    -0.047
    -362.74    -0.118
    -361.71     0.018
    -360.68     0.099
    -359.65    -0.110
    -358.62     0.029
    -357.58     0.086
    -356.55     0.069
    -355.52     0.044
    -354.49     0.021
    -353.46    -0.077
    -352.43    -0.141
    -351.40     0.021
    -350.37    -0.067
    -349.34    -0.085
    -348.31     0.178
    -347.28    -0.073
    -346.25    -0.024
    -345.22     0.065
    -344.19     0.045
    -343.16     0.122
    -342.13    -0.023
    -341.10    -0.125
    -340.07    -0.048
    -339.04     0.021
    -338.01     0.074
    -336.97     0.042
    -335.94    -0.039
    -334.91    -0.089
    -333.88     0.125
    -332.85    -0.107
    -331.82     0.175
    -330.79    -0.187
    -329.76    -0.064
    -328.73     0.013
    -327.70    -0.038
    -326.67    -0.047
    -325.64    -0.050
    -324.61     0.113
    -323.58     0.007
    -322.55    -0.172
    -321.52     0.164
    -320.49    -0.092
    -319.46     0.158
    -318.43    -0.058
    -317.39     0.016
    -316.36    -0.055
    -315.33     0.021
    -314.30     0.056
    -313.27     0.068
    -312.24    -0.055
    -311.21     0.157
    -310.18     0.054
    -309.15    -0.017
    -308.12    -0.065
    -307.09    -0.003
    -306.06    -0.011
    -305.03     0.021
    -304.00    -0.027
    -302.97     0.131
    -301.94    -0.032
    -300.91    -0.030
    -299.88    -0.018
    -298.85     0.004
    -297.82    -0.077
    -296.78     0.003
    -295.75    -0.125
    -294.72    -0.065
    -293.69     0.027
    -292.66     0.019
    -291.63     0.216
    -290.60     0.137
    -289.57    -0.024
    -288.54     0.045
    -287.51    -0.171
    -286.48    -0.051
    -285.45    -0.005
    -284.42     0.032
    -283.39     0.029
    -282.36     0.078
    -281.33    -0.003
    -280.30     0.039
    -279.27     0.015
    -278.24     0.062
    -277.21    -0.125
    -276.17    -0.092
    -275.14    -0.029
    -274.11     0.063
    -273.08    -0.030
    -272.05     0.155
    -271.02     0.025
    -269.99     0.072
    -268.96    -0.012
    -267.93     0.027
    -266.90    -0.011
    -265.87     0.053
    -264.84    -0.088
    -263.81     0.199
    -262.78    -0.094
    -261.75    -0.032
    -260.72     0.057
    -259.69     0.164
    -258.66    -0.006
    -257.63     0.010
    -256.60     0.063
    -255.56    -0.026
    -254.53    -0.138
    -253.50     0.084
    -252.47     0.024
    -251.44     0.007
    -250.41    -0.012
    -249.38     0.065
    -248.35     0.032
    -247.32     0.048
    -246.29     0.053
    -245.26    -0.017
    -244.23    -0.112
    -243.20     0.101
    -242.17     0.178
    -241.14    -0.115
    -240.11     0.044
    -239.08    -0.011
    -238.05    -0.064
    -237.02    -0.035
    -235.99     0.010
    -234.95     0.042
    -233.92     0.006
    -232.89     0.021
    -231.86    -0.163
    -230.83     0.050
    -229.80    -0.062
    -228.77     0.001
    -227.74    -0.068
    -226.71     0.093
    -225.68    -0.178
    -224.65     0.201
    -223.62    -0.083
    -222.59     0.081
    -221.56     0.063
    -220.53    -0.020
    -219.50     0.101
    -218.47     0.075
    -217.44    -0.141
    -216.41     0.211
    -215.38    -0.009
    -214.34    -0.051
    -213.31     0.033
    -212.28     0.145
    -211.25    -0.073
    -210.22    -0.136
    -209.19    -0.128
    -208.16    -0.048
    -207.13    -0.017
    -206.10     0.065
    -205.07     0.056
    -204.04    -0.009
    -203.01    -0.138
    -201.98     0.059
    -200.95    -0.077
    -199.92     0.060
    -198.89    -0.056
    -197.86    -0.035
    -196.83    -0.032
    -195.80    -0.017
    -194.77    -0.068
    -193.73    -0.172
    -192.70    -0.067
    -191.67     0.077
    -190.64     0.010
    -189.61     0.030
    -188.58     0.151
    -187.55     0.053
    -186.52     0.016
    -185.49    -0.153
    -184.46    -0.070
    -183.43     0.030
    -182.40     0.125
    -181.37     0.187
    -180.34    -0.015
    -179.31     0.045
    -178.28    -0.050
    -177.25     0.102
    -176.22     0.072
    -175.19     0.032
    -174.15     0.074
    -173.12     0.128
    -172.09     0.121
    -171.06     0.096
    -170.03     0.089
    -169.00     0.030
    -167.97     0.108
    -166.94     0.121
    -165.91     0.042
    -164.88    -0.045
    -163.85     0.128
    -162.82     0.268
    -161.79     0.021
    -160.76    -0.021
    -159.73     0.184
    -158.70     0.262
    -157.67     0.107
    -156.64     0.247
    -155.61     0.127
    -154.58     0.246
    -153.54     0.179
    -152.51     0.166
    -151.48     0.160
    -150.45     0.267
    -149.42     0.240
    -148.39     0.217
    -147.36     0.321
    -146.33     0.398
    -145.30     0.329
    -144.27     0.344
    -143.24     0.489
    -142.21     0.558
    -141.18     0.427
    -140.15     0.386
    -139.12     0.711
    -138.09     0.524
    -137.06     0.587
    -136.03     0.507
    -135.00     0.545
    -133.97     0.685
    -132.93     0.810
    -131.90     0.889
    -130.87     0.738
    -129.84     1.005
    -128.81     1.016
    -127.78     1.171
    -126.75     1.156
    -125.72     1.216
    -124.69     1.461
    -123.66     1.844
    -122.63     1.856
    -121.60     1.969
    -120.57     2.277
    -119.54     2.301
    -118.51     2.442
    -117.48     2.769
    -116.45     2.798
    -115.42     3.008
    -114.39     3.284
    -113.36     3.569
    -112.32     3.423
    -111.29     3.676
    -110.26     4.230
    -109.23     4.354
    -108.20     4.819
    -107.17     5.192
    -106.14     5.385
    -105.11     5.797
    -104.08     6.311
    -103.05     7.110
    -102.02     7.621
    -100.99     8.180
     -99.96     8.474
     -98.93     8.208
     -97.90     7.501
     -96.87     7.496
     -95.84     7.557
     -94.81     8.270
     -93.78     8.981
     -92.75     9.761
     -91.71    10.137
     -90.68     9.538
     -89.65     8.838
     -88.62     8.462
     -87.59     8.071
     -86.56     7.929
     -85.53     7.982
     -84.50     8.343
     -83.47     9.443
     -82.44    10.382
     -81.41    11.683
     -80.38    13.154
     -79.35    14.974
     -78.32    16.959
     -77.29    18.747
     -76.26    20.115
     -75.23    21.918
     -74.20    23.361
     -73.17    24.870
     -72.14    26.630
     -71.10    27.403
     -70.07    28.147
     -69.04    29.119
     -68.01    29.473
     -66.98    28.972
     -65.95    28.317
     -64.92    27.742
     -63.89    27.489
     -62.86    28.545
     -61.83    31.345
     -60.80    36.754
     -59.77    44.676
     -58.74    54.333
     -57.71    63.111
     -56.68    70.096
     -55.65    76.452
     -54.62    79.638
     -53.59    80.561
     -52.56    80.466
     -51.53    83.648
     -50.49    90.371
     -49.46    96.744
     -48.43    98.680
     -47.40    96.819
     -46.37    93.866
     -45.34    90.306
     -44.31    85.846
     -43.28    80.049
     -42.25    70.831
     -41.22    57.578
     -40.19    46.855
     -39.16    39.338
     -38.13    33.496
     -37.10    30.258
     -36.07    27.960
     -35.04    25.786
     -34.01    23.916
     -32.98    21.469
     -31.95    19.555
     -30.92    17.119
     -29.88    14.685
     -28.85    12.356
     -27.82    10.430
     -26.79     9.387
     -25.76     8.352
     -24.73     7.701
     -23.70     7.611
     -22.67     7.754
     -21.64     8.177
     -20.61     8.746
     -19.58     9.454
     -18.55    10.205
     -17.52    11.121
     -16.49    12.422
     -15.46    14.882
     -14.43    18.157
     -13.40    23.654
     -12.37    30.856
     -11.34    38.932
     -10.31    49.652
      -9.27    61.249
      -8.24    72.495
      -7.21    81.533
      -6.18    88.028
      -5.15    91.204
      -4.12    91.124
      -3.09    88.768
      -2.06    85.372
      -1.03    81.057
       0.00    74.050
       1.03    62.809
       2.06    50.415
       3.09    40.273
       4.12    32.901
       5.15    25.869
       6.18    19.985
       7.21    15.125
       8.24    11.966
       9.27     9.179
      10.31     7.217
      11.34     5.243
      12.37     3.937
      13.40     3.113
      14.43     2.307
      15.46     1.769
      16.49     1.369
      17.52     1.180
      18.55     0.880
      19.58     0.573
      20.61     0.551
      21.64     0.481
      22.67     0.462
      23.70     0.240
      24.73     0.220
      25.76     0.228
      26.79     0.185
      27.82     0.190
      28.85     0.142
      29.88     0.042
      30.92     0.271
      31.95     0.157
      32.98     0.175
      34.01    -0.055
      35.04     0.019
      36.07     0.127
      37.10     0.054
      38.13     0.066
      39.16    -0.017
      40.19     0.039
      41.22     0.208
      42.25    -0.047
      43.28    -0.006
      44.31    -0.116
      45.34    -0.027
      46.37     0.039
      47.40    -0.098
      48.43    -0.089
      49.46     0.092
      50.49     0.032
      51.53     0.006
      52.56    -0.036
      53.59     0.056
      54.62    -0.030
      55.65    -0.175
      56.68    -0.045
      57.71     0.016
      58.74     0.077
      59.77     0.021
      60.80     0.093
      61.83    -0.213
      62.86    -0.079
      63.89     0.057
      64.92    -0.018
      65.95    -0.225
      66.98     0.018
      68.01     0.112
      69.04    -0.021
      70.07     0.013
      71.10    -0.045
      72.14    -0.012
      73.17     0.195
      74.20     0.148
      75.23    -0.032
      76.26    -0.091
      77.29     0.089
      78.32    -0.109
      79.35     0.092
      80.38     0.063
      81.41    -0.029
      82.44     0.042
      83.47    -0.095
      84.50    -0.107
      85.53     0.048
      86.56    -0.051
      87.59     0.066
      88.62    -0.076
      89.65    -0.062
      90.68     0.007
      91.71     0.036
      92.75     0.112
      93.78     0.093
      94.81    -0.032
      95.84    -0.159
      96.87     0.018
      97.90     0.066
      98.93    -0.020
      99.96    -0.106
     100.99     0.084
     102.02     0.041
     103.05    -0.021
     104.08     0.198
     105.11     0.121
     106.14     0.133
     107.17    -0.038
     108.20     0.066
     109.23     0.163
     110.26    -0.051
     111.29    -0.032
     112.32     0.188
     113.36     0.093
     114.39     0.033
     115.42    -0.064
     116.45    -0.055
     117.48     0.110
     118.51    -0.119
     119.54    -0.056
     120.57    -0.091
     121.60     0.035
     122.63     0.077
     123.66     0.021
     124.69    -0.106
     125.72     0.140
     126.75    -0.030
     127.78    -0.071
     128.81    -0.142
     129.84     0.166
     130.87     0.102
     131.90     0.108
     132.93     0.022
     133.97     0.019
     135.00     0.059
     136.03     0.010
     137.06    -0.000
     138.09     0.089
     139.12    -0.156
     140.15    -0.073
     141.18    -0.038
     142.21     0.134
     143.24    -0.077
     144.27    -0.038
     145.30    -0.098
     146.33     0.148
     147.36    -0.061
     148.39     0.009
     149.42     0.078
     150.45    -0.006
     151.48     0.113
     152.51     0.093
     153.54     0.054
     154.58     0.093
     155.61     0.035
     156.64     0.009
     157.67     0.083
     158.70     0.068
     159.73     0.003
     160.76     0.101
     161.79     0.001
     162.82     0.184
     163.85     0.027
     164.88     0.003
     165.91    -0.048
     166.94    -0.045
     167.97     0.010
     169.00     0.152
     170.03     0.089
     171.06     0.104
     172.09    -0.051
     173.12     0.086
     174.16    -0.142
     175.19    -0.076
     176.22    -0.011
     177.25    -0.027
     178.28    -0.083
     179.31    -0.118
     180.34    -0.219
     181.37     0.142
     182.40     0.107
     183.43     0.155
     184.46    -0.048
     185.49    -0.020
     186.52    -0.003
     187.55     0.032
     188.58    -0.074
     189.61     0.030
     190.64    -0.050
     191.67    -0.074
     192.70     0.025
     193.73     0.056
     194.77    -0.017
     195.80     0.080
     196.83    -0.020
     197.86    -0.039
     198.89     0.054
     199.92     0.143
     200.95    -0.145
     201.98    -0.202
     203.01     0.199
     204.04    -0.017
     205.07     0.148
     206.10    -0.036
     207.13    -0.119
     208.16     0.030
     209.19    -0.127
     210.22    -0.000
     211.25    -0.006
     212.28    -0.070
     213.31    -0.131
     214.34     0.137
     215.38     0.041
     216.41    -0.150
     217.44    -0.056
     218.47    -0.051
     219.50     0.146
     220.53     0.130
     221.56     0.096
     222.59     0.084
     223.62    -0.080
     224.65     0.080
     225.68    -0.151
     226.71    -0.021
     227.74    -0.180
     228.77    -0.044
     229.80    -0.089
     230.83    -0.017
     231.86     0.098
     232.89    -0.092
     233.92     0.030
     234.95     0.027
     235.99    -0.205
     237.02     0.012
     238.05     0.007
     239.08     0.131
     240.11    -0.098
     241.14    -0.055
     242.17     0.025
     243.20    -0.067
     244.23     0.234
     245.26     0.022
     246.29    -0.106
     247.32    -0.050
     248.35     0.006
     249.38     0.007
     250.41     0.045
     251.44    -0.009
     252.47     0.075
     253.50    -0.134
     254.53    -0.094
     255.56     0.010
     256.60    -0.109
     257.63     0.041
     258.66    -0.172
     259.69     0.151
     260.72    -0.068
     261.75     0.093
     262.78    -0.055
     263.81    -0.071
     264.84     0.146
     265.87     0.029
     266.90     0.086
     267.93    -0.038
     268.96    -0.119
     269.99     0.050
     271.02     0.027
     272.05     0.030
     273.08    -0.024
     274.11    -0.174
     275.14     0.116
     276.17     0.004
     277.21     0.015
     278.24     0.015
     279.27     0.032
     280.30    -0.000
     281.33    -0.026
     282.36     0.063
     283.39     0.108
     284.42     0.060
     285.45    -0.014
     286.48    -0.195
     287.51     0.018
     288.54     0.207
     289.57    -0.128
     290.60    -0.077
     291.63    -0.067
     292.66     0.185
     293.69    -0.035
     294.72     0.057
     295.75     0.003
     296.78    -0.005
     297.82     0.007
     298.85    -0.160
     299.88     0.042
     300.91     0.048
     301.94    -0.071
     302.97     0.032
     304.00    -0.080
     305.03    -0.042
     306.06    -0.076
     307.09     0.176
     308.12    -0.050
     309.15     0.051
     310.18     0.092
     311.21    -0.115
     312.24    -0.020
     313.27    -0.018
     314.30    -0.015
     315.33     0.157
     316.36    -0.104
     317.39     0.007
     318.43    -0.131
     319.46     0.084
     320.49    -0.115
     321.52     0.063
     322.55     0.054
     323.58     0.128
     324.61    -0.190
     325.64    -0.018
     326.67     0.010
     327.70    -0.115
     328.73    -0.085
     329.76    -0.121
     330.79     0.068
     331.82     0.166
     332.85     0.025
     333.88     0.167
     334.91    -0.088
     335.94     0.110
     336.97     0.012
     338.01     0.137
     339.04     0.024
     340.07     0.167
     341.10     0.027
     342.13    -0.035
     343.16    -0.089
     344.19     0.140
     345.22     0.044
     346.25    -0.000
     347.28     0.019
     348.31     0.048
     349.34    -0.088
     350.37     0.018
     351.40    -0.035
     352.43    -0.103
     353.46    -0.070
     354.49     0.059
     355.52    -0.029
     356.55     0.124
     357.58    -0.083
     358.62     0.039
     359.65    -0.082
     360.68     0.019
     361.71    -0.014
     362.74    -0.011
     363.77     0.033
     364.80     0.036
     365.83     0.039
     366.86    -0.134
     367.89    -0.125
     368.92    -0.091
     369.95    -0.041
     370.98     0.041
     372.01    -0.086
     373.04     0.022
     374.07     0.081
     375.10     0.022
     376.13    -0.039
     377.16     0.062
     378.19    -0.008
     379.23     0.038
     380.26    -0.144
     381.29    -0.018
     382.32     0.054
     383.35    -0.042
     384.38    -0.059
     385.41    -0.222
     386.44     0.050
     387.47    -0.033
     388.50    -0.162
     389.53    -0.050
     390.56    -0.106
     391.59     0.057
     392.62    -0.113
     393.65    -0.086
     394.68    -0.130
     395.71    -0.168
     396.74    -0.159
     397.77     0.060
     398.80    -0.003
     399.84     0.003
