%%            108.00000            -1.00000    0             0.12700
% LAB  survey ------------------
% wanted position:  l, b, RA, DEC, and interpolated  NH
%108.00 ;  -1.00 ; 343.40 ;  58.41 ;  0.676E+22
% nearest position: l, b, RA, DEC, and observed NH
%108.00 ;  -1.00 ; 343.40 ;  58.41 ;  0.676E+22
% GASS III survey --------------
% NH - median within 6 arcmin radius   0.00    
% NH - mean within specified beam      0.00    
% EBHIS survey -----------------
% NH  within specified beam           0.664E+22
%%EBHIS   621  datapoints: v_lsr [km/s] and T_B [K]
    -399.25     0.023
    -397.96    -0.086
    -396.68    -0.069
    -395.39     0.017
    -394.10     0.040
    -392.81    -0.062
    -391.52     0.052
    -390.23    -0.083
    -388.95     0.046
    -387.66     0.087
    -386.37    -0.044
    -385.08    -0.026
    -383.79    -0.115
    -382.50    -0.072
    -381.22     0.037
    -379.93    -0.000
    -378.64     0.091
    -377.35     0.189
    -376.06     0.031
    -374.78     0.089
    -373.49     0.057
    -372.20    -0.013
    -370.91     0.011
    -369.62    -0.146
    -368.33    -0.071
    -367.05    -0.007
    -365.76    -0.044
    -364.47    -0.052
    -363.18    -0.023
    -361.89     0.073
    -360.60     0.027
    -359.32    -0.056
    -358.03     0.118
    -356.74     0.090
    -355.45     0.162
    -354.16     0.049
    -352.88    -0.036
    -351.59     0.117
    -350.30     0.069
    -349.01    -0.126
    -347.72     0.006
    -346.43     0.086
    -345.15     0.013
    -343.86     0.001
    -342.57     0.187
    -341.28    -0.004
    -339.99     0.043
    -338.70     0.049
    -337.42    -0.024
    -336.13    -0.024
    -334.84    -0.000
    -333.55     0.114
    -332.26     0.038
    -330.98    -0.019
    -329.69    -0.192
    -328.40    -0.130
    -327.11    -0.091
    -325.82    -0.097
    -324.53    -0.042
    -323.25     0.060
    -321.96     0.029
    -320.67    -0.045
    -319.38     0.057
    -318.09    -0.006
    -316.80    -0.106
    -315.52     0.095
    -314.23     0.070
    -312.94    -0.046
    -311.65    -0.094
    -310.36    -0.085
    -309.08    -0.184
    -307.79    -0.039
    -306.50    -0.047
    -305.21    -0.059
    -303.92    -0.020
    -302.63    -0.042
    -301.35     0.078
    -300.06     0.007
    -298.77    -0.039
    -297.48    -0.001
    -296.19     0.067
    -294.90     0.080
    -293.62    -0.097
    -292.33    -0.024
    -291.04     0.035
    -289.75     0.066
    -288.46     0.013
    -287.18     0.027
    -285.89     0.041
    -284.60     0.006
    -283.31     0.091
    -282.02    -0.061
    -280.73    -0.013
    -279.45    -0.000
    -278.16     0.062
    -276.87     0.091
    -275.58     0.087
    -274.29    -0.057
    -273.00     0.057
    -271.72    -0.086
    -270.43    -0.030
    -269.14    -0.086
    -267.85     0.018
    -266.56    -0.008
    -265.28     0.102
    -263.99     0.112
    -262.70     0.041
    -261.41    -0.118
    -260.12     0.123
    -258.83    -0.018
    -257.55    -0.025
    -256.26    -0.100
    -254.97     0.005
    -253.68     0.059
    -252.39     0.113
    -251.10     0.054
    -249.82     0.159
    -248.53    -0.009
    -247.24     0.062
    -245.95    -0.110
    -244.66    -0.009
    -243.38    -0.078
    -242.09    -0.078
    -240.80     0.060
    -239.51    -0.141
    -238.22    -0.020
    -236.93    -0.076
    -235.65     0.126
    -234.36    -0.074
    -233.07     0.104
    -231.78    -0.004
    -230.49    -0.008
    -229.20    -0.014
    -227.92    -0.055
    -226.63    -0.024
    -225.34     0.110
    -224.05    -0.086
    -222.76    -0.030
    -221.48     0.056
    -220.19     0.020
    -218.90     0.105
    -217.61     0.030
    -216.32    -0.013
    -215.03    -0.071
    -213.75     0.006
    -212.46    -0.104
    -211.17     0.029
    -209.88     0.041
    -208.59    -0.119
    -207.30    -0.099
    -206.02     0.039
    -204.73     0.040
    -203.44    -0.026
    -202.15    -0.001
    -200.86     0.082
    -199.58     0.073
    -198.29     0.015
    -197.00     0.012
    -195.71     0.052
    -194.42     0.123
    -193.13     0.083
    -191.85     0.046
    -190.56     0.018
    -189.27     0.061
    -187.98    -0.056
    -186.69     0.003
    -185.40     0.033
    -184.12    -0.087
    -182.83    -0.060
    -181.54     0.145
    -180.25     0.016
    -178.96    -0.029
    -177.68     0.053
    -176.39     0.125
    -175.10     0.025
    -173.81     0.025
    -172.52     0.101
    -171.23     0.029
    -169.95     0.032
    -168.66     0.048
    -167.37     0.005
    -166.08     0.109
    -164.79     0.008
    -163.50    -0.048
    -162.22    -0.069
    -160.93     0.180
    -159.64     0.153
    -158.35     0.029
    -157.06     0.105
    -155.78     0.082
    -154.49     0.181
    -153.20     0.097
    -151.91     0.142
    -150.62     0.311
    -149.33     0.228
    -148.05     0.397
    -146.76     0.289
    -145.47     0.288
    -144.18     0.360
    -142.89     0.335
    -141.60     0.329
    -140.32     0.436
    -139.03     0.470
    -137.74     0.416
    -136.45     0.467
    -135.16     0.551
    -133.88     0.533
    -132.59     0.481
    -131.30     0.547
    -130.01     0.564
    -128.72     0.609
    -127.43     0.778
    -126.15     0.784
    -124.86     0.925
    -123.57     0.910
    -122.28     1.059
    -120.99     1.212
    -119.70     1.402
    -118.42     1.691
    -117.13     1.805
    -115.84     1.852
    -114.55     2.186
    -113.26     2.371
    -111.98     2.538
    -110.69     2.815
    -109.40     3.003
    -108.11     3.295
    -106.82     3.641
    -105.53     3.688
    -104.25     3.844
    -102.96     3.966
    -101.67     3.910
    -100.38     3.656
     -99.09     3.294
     -97.80     3.279
     -96.52     3.197
     -95.23     3.384
     -93.94     3.280
     -92.65     3.602
     -91.36     3.780
     -90.08     3.714
     -88.79     4.006
     -87.50     4.404
     -86.21     4.655
     -84.92     5.046
     -83.63     5.818
     -82.35     6.353
     -81.06     7.526
     -79.77     8.817
     -78.48    10.061
     -77.19    11.186
     -75.90    12.731
     -74.62    14.156
     -73.33    16.371
     -72.04    19.409
     -70.75    23.209
     -69.46    25.279
     -68.18    26.380
     -66.89    27.299
     -65.60    27.587
     -64.31    27.617
     -63.02    27.990
     -61.73    29.823
     -60.45    32.784
     -59.16    38.284
     -57.87    46.733
     -56.58    57.169
     -55.29    68.099
     -54.00    77.658
     -52.72    85.174
     -51.43    87.189
     -50.14    82.866
     -48.85    74.822
     -47.56    68.361
     -46.28    63.121
     -44.99    58.126
     -43.70    51.804
     -42.41    46.243
     -41.12    45.504
     -39.83    50.109
     -38.55    57.037
     -37.26    59.861
     -35.97    53.778
     -34.68    42.803
     -33.39    31.629
     -32.10    23.293
     -30.82    17.810
     -29.53    13.607
     -28.24    11.256
     -26.95     9.647
     -25.66     8.030
     -24.38     7.186
     -23.09     6.969
     -21.80     7.658
     -20.51     9.227
     -19.22    11.556
     -17.93    14.573
     -16.65    19.518
     -15.36    28.572
     -14.07    41.730
     -12.78    53.765
     -11.49    59.694
     -10.20    61.124
      -8.92    61.509
      -7.63    61.748
      -6.34    60.456
      -5.05    59.118
      -3.76    60.387
      -2.48    63.937
      -1.19    66.295
       0.10    63.917
       1.39    56.126
       2.68    44.880
       3.97    32.642
       5.25    22.738
       6.54    15.892
       7.83    10.814
       9.12     7.555
      10.41     5.432
      11.70     3.798
      12.98     2.843
      14.27     1.967
      15.56     1.430
      16.85     0.973
      18.14     0.714
      19.42     0.644
      20.71     0.521
      22.00     0.250
      23.29     0.257
      24.58     0.026
      25.87    -0.106
      27.15     0.016
      28.44     0.069
      29.73     0.156
      31.02    -0.035
      32.31     0.018
      33.60    -0.009
      34.88     0.110
      36.17    -0.034
      37.46    -0.105
      38.75     0.005
      40.04    -0.048
      41.32    -0.008
      42.61    -0.139
      43.90     0.010
      45.19     0.010
      46.48    -0.001
      47.77    -0.069
      49.05    -0.064
      50.34     0.041
      51.63     0.051
      52.92    -0.024
      54.21     0.060
      55.50    -0.037
      56.78    -0.031
      58.07    -0.118
      59.36     0.011
      60.65    -0.083
      61.94     0.060
      63.22     0.013
      64.51     0.109
      65.80     0.061
      67.09     0.117
      68.38    -0.034
      69.67    -0.063
      70.95    -0.041
      72.24    -0.160
      73.53    -0.150
      74.82     0.033
      76.11    -0.119
      77.40     0.001
      78.68    -0.150
      79.97    -0.035
      81.26    -0.063
      82.55     0.018
      83.84     0.123
      85.12    -0.013
      86.41    -0.022
      87.70     0.027
      88.99     0.031
      90.28     0.140
      91.57     0.026
      92.85     0.040
      94.14     0.040
      95.43    -0.093
      96.72    -0.034
      98.01     0.276
      99.30    -0.045
     100.58    -0.063
     101.87    -0.076
     103.16    -0.020
     104.45    -0.058
     105.74    -0.123
     107.02    -0.016
     108.31    -0.026
     109.60    -0.028
     110.89     0.091
     112.18     0.108
     113.47     0.076
     114.75    -0.001
     116.04    -0.085
     117.33    -0.077
     118.62     0.028
     119.91     0.010
     121.20    -0.019
     122.48     0.057
     123.77    -0.010
     125.06     0.052
     126.35     0.055
     127.64    -0.029
     128.92    -0.088
     130.21    -0.097
     131.50    -0.024
     132.79    -0.076
     134.08     0.114
     135.37     0.105
     136.65     0.055
     137.94    -0.036
     139.23    -0.024
     140.52    -0.024
     141.81    -0.012
     143.09     0.107
     144.38     0.078
     145.67     0.084
     146.96     0.107
     148.25     0.140
     149.54     0.117
     150.82     0.075
     152.11     0.028
     153.40    -0.117
     154.69    -0.005
     155.98     0.118
     157.27    -0.078
     158.55    -0.099
     159.84    -0.104
     161.13     0.059
     162.42    -0.035
     163.71     0.101
     164.99     0.198
     166.28     0.122
     167.57     0.044
     168.86     0.029
     170.15     0.053
     171.44    -0.034
     172.72    -0.000
     174.01     0.148
     175.30     0.098
     176.59     0.023
     177.88    -0.018
     179.17     0.091
     180.45    -0.016
     181.74     0.052
     183.03    -0.073
     184.32     0.017
     185.61    -0.022
     186.89    -0.118
     188.18    -0.056
     189.47     0.025
     190.76    -0.020
     192.05     0.181
     193.34    -0.006
     194.62     0.027
     195.91    -0.084
     197.20    -0.097
     198.49    -0.170
     199.78    -0.072
     201.07    -0.085
     202.35     0.024
     203.64    -0.180
     204.93    -0.009
     206.22    -0.004
     207.51     0.195
     208.79    -0.002
     210.08    -0.051
     211.37     0.015
     212.66     0.001
     213.95    -0.013
     215.24    -0.209
     216.52     0.004
     217.81     0.040
     219.10    -0.047
     220.39    -0.095
     221.68     0.070
     222.97     0.093
     224.25     0.131
     225.54     0.109
     226.83     0.149
     228.12     0.058
     229.41     0.010
     230.69    -0.109
     231.98     0.026
     233.27    -0.017
     234.56     0.035
     235.85     0.036
     237.14    -0.053
     238.42    -0.170
     239.71    -0.041
     241.00     0.009
     242.29     0.112
     243.58    -0.008
     244.87     0.120
     246.15     0.125
     247.44     0.023
     248.73     0.186
     250.02     0.146
     251.31     0.008
     252.59    -0.013
     253.88    -0.164
     255.17    -0.072
     256.46    -0.116
     257.75    -0.010
     259.04     0.050
     260.32     0.051
     261.61    -0.019
     262.90    -0.085
     264.19    -0.022
     265.48    -0.069
     266.77     0.083
     268.05    -0.011
     269.34     0.002
     270.63     0.013
     271.92    -0.003
     273.21     0.063
     274.49    -0.026
     275.78     0.065
     277.07     0.006
     278.36     0.122
     279.65    -0.031
     280.94     0.147
     282.22     0.031
     283.51     0.063
     284.80    -0.040
     286.09    -0.128
     287.38    -0.020
     288.67     0.001
     289.95    -0.041
     291.24    -0.106
     292.53     0.002
     293.82     0.063
     295.11     0.120
     296.39     0.132
     297.68     0.051
     298.97     0.039
     300.26     0.078
     301.55    -0.062
     302.84     0.073
     304.12    -0.021
     305.41    -0.011
     306.70     0.043
     307.99    -0.095
     309.28    -0.118
     310.57    -0.093
     311.85    -0.035
     313.14    -0.065
     314.43     0.064
     315.72    -0.014
     317.01    -0.073
     318.29    -0.062
     319.58     0.019
     320.87     0.012
     322.16    -0.065
     323.45    -0.033
     324.74     0.015
     326.02    -0.128
     327.31    -0.095
     328.60    -0.001
     329.89     0.027
     331.18     0.010
     332.47     0.053
     333.75    -0.180
     335.04    -0.023
     336.33    -0.115
     337.62    -0.026
     338.91    -0.003
     340.19    -0.082
     341.48     0.012
     342.77    -0.103
     344.06     0.048
     345.35     0.013
     346.64    -0.079
     347.92     0.021
     349.21    -0.040
     350.50    -0.098
     351.79    -0.040
     353.08     0.036
     354.37     0.130
     355.65    -0.008
     356.94     0.035
     358.23    -0.062
     359.52    -0.041
     360.81     0.031
     362.09     0.009
     363.38     0.105
     364.67    -0.026
     365.96    -0.011
     367.25    -0.117
     368.54    -0.165
     369.82    -0.041
     371.11     0.036
     372.40    -0.042
     373.69     0.051
     374.98     0.105
     376.27    -0.027
     377.55     0.050
     378.84     0.045
     380.13     0.040
     381.42     0.139
     382.71     0.008
     383.99    -0.001
     385.28    -0.013
     386.57     0.025
     387.86     0.018
     389.15     0.021
     390.44    -0.009
     391.72    -0.156
     393.01     0.009
     394.30    -0.087
     395.59     0.092
     396.88     0.016
     398.17     0.094
     399.45     0.115
%%GASS      0  datapoints: v_lsr [km/s] and T_B [K] for beam weighted average and median within 6 arcmin
%%LAB     777  datapoints: v_lsr [km/s] and T_B [K]
    -399.85     0.139
    -398.82     0.111
    -397.79     0.071
    -396.76     0.006
    -395.72    -0.114
    -394.69     0.095
    -393.66     0.116
    -392.63    -0.034
    -391.60    -0.078
    -390.57    -0.025
    -389.54    -0.133
    -388.51    -0.070
    -387.48    -0.089
    -386.45    -0.054
    -385.42     0.000
    -384.39     0.104
    -383.36    -0.030
    -382.33     0.014
    -381.30     0.087
    -380.27     0.035
    -379.24    -0.029
    -378.21    -0.104
    -377.17     0.090
    -376.14    -0.140
    -375.11     0.102
    -374.08     0.030
    -373.05    -0.070
    -372.02     0.115
    -370.99     0.063
    -369.96    -0.188
    -368.93     0.076
    -367.90     0.051
    -366.87    -0.042
    -365.84    -0.002
    -364.81     0.047
    -363.78     0.014
    -362.75    -0.085
    -361.72     0.044
    -360.69    -0.068
    -359.66    -0.005
    -358.63     0.106
    -357.59    -0.129
    -356.56     0.159
    -355.53     0.019
    -354.50    -0.132
    -353.47    -0.148
    -352.44     0.092
    -351.41     0.091
    -350.38    -0.013
    -349.35    -0.093
    -348.32    -0.020
    -347.29    -0.094
    -346.26    -0.044
    -345.23     0.068
    -344.20    -0.014
    -343.17     0.106
    -342.14     0.067
    -341.11     0.051
    -340.08    -0.034
    -339.05    -0.032
    -338.01     0.096
    -336.98    -0.109
    -335.95     0.056
    -334.92     0.034
    -333.89    -0.117
    -332.86     0.072
    -331.83     0.091
    -330.80     0.007
    -329.77    -0.073
    -328.74    -0.032
    -327.71     0.020
    -326.68    -0.032
    -325.65    -0.061
    -324.62     0.116
    -323.59     0.048
    -322.56    -0.010
    -321.53     0.003
    -320.50    -0.036
    -319.47     0.015
    -318.43    -0.064
    -317.40    -0.010
    -316.37    -0.052
    -315.34     0.006
    -314.31     0.096
    -313.28     0.004
    -312.25     0.028
    -311.22     0.039
    -310.19    -0.213
    -309.16    -0.112
    -308.13    -0.162
    -307.10     0.020
    -306.07    -0.189
    -305.04     0.058
    -304.01     0.063
    -302.98     0.011
    -301.95    -0.013
    -300.92     0.156
    -299.88    -0.056
    -298.85    -0.002
    -297.82     0.112
    -296.79     0.155
    -295.76     0.027
    -294.73     0.036
    -293.70     0.028
    -292.67     0.002
    -291.64     0.064
    -290.61     0.268
    -289.58    -0.005
    -288.55    -0.024
    -287.52    -0.089
    -286.49    -0.010
    -285.46     0.111
    -284.43     0.047
    -283.40    -0.068
    -282.37     0.007
    -281.34     0.062
    -280.30    -0.032
    -279.27     0.120
    -278.24     0.090
    -277.21     0.100
    -276.18    -0.036
    -275.15     0.104
    -274.12     0.022
    -273.09    -0.009
    -272.06     0.051
    -271.03    -0.004
    -270.00    -0.034
    -268.97    -0.013
    -267.94     0.106
    -266.91    -0.144
    -265.88     0.075
    -264.85     0.051
    -263.82     0.168
    -262.79    -0.124
    -261.76     0.108
    -260.72     0.036
    -259.69     0.014
    -258.66     0.047
    -257.63    -0.073
    -256.60     0.007
    -255.57    -0.073
    -254.54    -0.012
    -253.51     0.128
    -252.48    -0.190
    -251.45    -0.034
    -250.42    -0.097
    -249.39    -0.129
    -248.36     0.004
    -247.33     0.166
    -246.30    -0.054
    -245.27    -0.138
    -244.24    -0.016
    -243.21    -0.061
    -242.18     0.058
    -241.14     0.019
    -240.11    -0.134
    -239.08     0.167
    -238.05    -0.165
    -237.02     0.131
    -235.99    -0.065
    -234.96     0.072
    -233.93    -0.074
    -232.90    -0.069
    -231.87    -0.017
    -230.84     0.072
    -229.81     0.159
    -228.78    -0.044
    -227.75    -0.058
    -226.72     0.006
    -225.69    -0.045
    -224.66     0.059
    -223.63     0.020
    -222.60    -0.118
    -221.56    -0.074
    -220.53     0.080
    -219.50     0.122
    -218.47    -0.022
    -217.44    -0.094
    -216.41     0.214
    -215.38    -0.069
    -214.35    -0.086
    -213.32    -0.013
    -212.29     0.034
    -211.26    -0.165
    -210.23    -0.013
    -209.20     0.008
    -208.17    -0.072
    -207.14    -0.084
    -206.11     0.015
    -205.08     0.071
    -204.05    -0.068
    -203.01     0.228
    -201.98     0.119
    -200.95     0.052
    -199.92    -0.056
    -198.89     0.135
    -197.86    -0.100
    -196.83     0.042
    -195.80     0.263
    -194.77    -0.086
    -193.74     0.075
    -192.71    -0.089
    -191.68     0.050
    -190.65    -0.029
    -189.62     0.052
    -188.59    -0.062
    -187.56     0.010
    -186.53    -0.028
    -185.50     0.036
    -184.47    -0.061
    -183.43     0.014
    -182.40     0.075
    -181.37     0.050
    -180.34    -0.032
    -179.31    -0.025
    -178.28     0.002
    -177.25     0.003
    -176.22    -0.014
    -175.19     0.096
    -174.16     0.059
    -173.13     0.272
    -172.10    -0.077
    -171.07     0.026
    -170.04     0.099
    -169.01     0.135
    -167.98    -0.185
    -166.95     0.022
    -165.92    -0.097
    -164.89     0.036
    -163.85     0.175
    -162.82     0.146
    -161.79     0.028
    -160.76     0.048
    -159.73     0.122
    -158.70     0.224
    -157.67     0.056
    -156.64     0.171
    -155.61    -0.005
    -154.58     0.091
    -153.55     0.260
    -152.52     0.263
    -151.49     0.251
    -150.46     0.099
    -149.43     0.239
    -148.40     0.382
    -147.37     0.371
    -146.34     0.428
    -145.31     0.422
    -144.27     0.620
    -143.24     0.548
    -142.21     0.414
    -141.18     0.499
    -140.15     0.525
    -139.12     0.408
    -138.09     0.672
    -137.06     0.572
    -136.03     0.692
    -135.00     0.491
    -133.97     0.548
    -132.94     0.837
    -131.91     0.757
    -130.88     0.877
    -129.85     0.915
    -128.82     0.929
    -127.79     1.101
    -126.76     0.807
    -125.72     1.155
    -124.69     1.272
    -123.66     1.191
    -122.63     1.275
    -121.60     1.603
    -120.57     1.725
    -119.54     1.788
    -118.51     1.750
    -117.48     1.896
    -116.45     1.880
    -115.42     2.313
    -114.39     2.404
    -113.36     2.429
    -112.33     2.557
    -111.30     2.602
    -110.27     2.736
    -109.24     3.043
    -108.21     2.938
    -107.18     3.473
    -106.14     3.343
    -105.11     3.355
    -104.08     3.414
    -103.05     3.397
    -102.02     3.415
    -100.99     3.370
     -99.96     3.189
     -98.93     3.050
     -97.90     3.086
     -96.87     3.011
     -95.84     3.079
     -94.81     3.014
     -93.78     2.933
     -92.75     3.221
     -91.72     3.255
     -90.69     3.405
     -89.66     3.759
     -88.63     4.304
     -87.60     4.356
     -86.56     4.603
     -85.53     5.119
     -84.50     5.496
     -83.47     5.961
     -82.44     6.323
     -81.41     7.081
     -80.38     8.005
     -79.35     8.854
     -78.32    10.192
     -77.29    11.208
     -76.26    12.858
     -75.23    14.071
     -74.20    15.380
     -73.17    16.734
     -72.14    18.258
     -71.11    20.135
     -70.08    21.569
     -69.05    22.797
     -68.02    24.159
     -66.98    25.540
     -65.95    26.323
     -64.92    27.398
     -63.89    28.972
     -62.86    30.176
     -61.83    32.332
     -60.80    35.180
     -59.77    39.475
     -58.74    44.498
     -57.71    51.569
     -56.68    58.624
     -55.65    65.181
     -54.62    71.848
     -53.59    77.890
     -52.56    83.006
     -51.53    86.433
     -50.50    87.061
     -49.47    85.475
     -48.44    80.339
     -47.40    74.526
     -46.37    68.766
     -45.34    62.918
     -44.31    57.296
     -43.28    51.961
     -42.25    47.975
     -41.22    46.358
     -40.19    47.950
     -39.16    51.794
     -38.13    55.384
     -37.10    56.473
     -36.07    53.542
     -35.04    46.864
     -34.01    39.110
     -32.98    30.832
     -31.95    23.670
     -30.92    18.701
     -29.89    15.163
     -28.85    12.482
     -27.82    10.416
     -26.79     8.833
     -25.76     7.588
     -24.73     7.024
     -23.70     6.532
     -22.67     6.984
     -21.64     7.669
     -20.61     9.420
     -19.58    11.423
     -18.55    14.179
     -17.52    17.764
     -16.49    22.441
     -15.46    29.294
     -14.43    38.515
     -13.40    48.451
     -12.37    56.064
     -11.34    60.556
     -10.31    61.962
      -9.27    62.104
      -8.24    62.357
      -7.21    62.673
      -6.18    62.208
      -5.15    61.605
      -4.12    62.345
      -3.09    63.547
      -2.06    65.375
      -1.03    66.068
       0.00    64.359
       1.03    59.067
       2.06    51.187
       3.09    41.630
       4.12    32.209
       5.15    23.693
       6.18    17.553
       7.21    13.005
       8.24     9.736
       9.27     7.341
      10.31     5.532
      11.34     4.147
      12.37     3.237
      13.40     2.426
      14.43     2.134
      15.46     1.577
      16.49     1.119
      17.52     0.975
      18.55     0.893
      19.58     0.663
      20.61     0.477
      21.64     0.368
      22.67     0.136
      23.70     0.046
      24.73     0.054
      25.76     0.144
      26.79     0.219
      27.82     0.091
      28.85    -0.052
      29.89     0.111
      30.92    -0.053
      31.95    -0.153
      32.98     0.147
      34.01     0.083
      35.04     0.030
      36.07    -0.032
      37.10     0.086
      38.13     0.083
      39.16     0.123
      40.19    -0.029
      41.22     0.076
      42.25    -0.045
      43.28     0.118
      44.31    -0.022
      45.34     0.022
      46.37    -0.110
      47.40    -0.025
      48.43    -0.130
      49.47     0.180
      50.50     0.043
      51.53     0.066
      52.56     0.120
      53.59     0.107
      54.62     0.039
      55.65     0.114
      56.68     0.070
      57.71     0.022
      58.74    -0.157
      59.77    -0.044
      60.80     0.087
      61.83     0.070
      62.86    -0.082
      63.89     0.042
      64.92     0.188
      65.95     0.112
      66.98     0.107
      68.02     0.052
      69.05     0.123
      70.08     0.068
      71.11     0.166
      72.14     0.094
      73.17     0.019
      74.20    -0.030
      75.23    -0.197
      76.26    -0.146
      77.29     0.008
      78.32    -0.058
      79.35    -0.226
      80.38    -0.033
      81.41    -0.105
      82.44    -0.057
      83.47    -0.032
      84.50     0.008
      85.53    -0.022
      86.56     0.019
      87.60     0.012
      88.63    -0.005
      89.66    -0.058
      90.69     0.034
      91.72    -0.050
      92.75     0.119
      93.78     0.038
      94.81     0.147
      95.84     0.011
      96.87     0.210
      97.90     0.168
      98.93     0.060
      99.96    -0.176
     100.99     0.106
     102.02    -0.017
     103.05     0.138
     104.08     0.038
     105.11     0.143
     106.14    -0.100
     107.18    -0.132
     108.21    -0.033
     109.24     0.114
     110.27     0.004
     111.30     0.050
     112.33     0.108
     113.36    -0.141
     114.39    -0.118
     115.42     0.071
     116.45     0.052
     117.48     0.075
     118.51     0.006
     119.54    -0.005
     120.57    -0.036
     121.60     0.115
     122.63    -0.113
     123.66     0.132
     124.69     0.118
     125.72     0.088
     126.76     0.074
     127.79    -0.040
     128.82    -0.133
     129.85     0.003
     130.88     0.036
     131.91     0.102
     132.94    -0.106
     133.97     0.004
     135.00    -0.294
     136.03    -0.181
     137.06    -0.069
     138.09    -0.128
     139.12    -0.018
     140.15     0.115
     141.18    -0.025
     142.21    -0.002
     143.24    -0.040
     144.27    -0.145
     145.31    -0.061
     146.34     0.015
     147.37    -0.028
     148.40    -0.041
     149.43    -0.112
     150.46     0.164
     151.49     0.119
     152.52     0.119
     153.55     0.036
     154.58     0.032
     155.61    -0.044
     156.64    -0.105
     157.67     0.066
     158.70     0.030
     159.73     0.014
     160.76     0.007
     161.79     0.003
     162.82     0.054
     163.85     0.122
     164.89     0.038
     165.92    -0.072
     166.95     0.018
     167.98     0.011
     169.01     0.116
     170.04     0.094
     171.07    -0.112
     172.10    -0.081
     173.13     0.015
     174.16    -0.050
     175.19     0.066
     176.22     0.016
     177.25     0.138
     178.28     0.116
     179.31     0.032
     180.34    -0.201
     181.37    -0.056
     182.40     0.087
     183.43     0.136
     184.47    -0.181
     185.50    -0.030
     186.53     0.175
     187.56     0.048
     188.59     0.151
     189.62     0.003
     190.65    -0.013
     191.68     0.222
     192.71     0.062
     193.74    -0.157
     194.77    -0.056
     195.80    -0.088
     196.83    -0.081
     197.86     0.119
     198.89     0.002
     199.92    -0.077
     200.95    -0.132
     201.98     0.031
     203.01    -0.048
     204.05     0.067
     205.08     0.003
     206.11    -0.169
     207.14    -0.106
     208.17    -0.033
     209.20    -0.008
     210.23     0.007
     211.26     0.011
     212.29     0.048
     213.32     0.123
     214.35     0.096
     215.38     0.147
     216.41     0.047
     217.44     0.015
     218.47    -0.029
     219.50    -0.094
     220.53    -0.074
     221.56    -0.082
     222.60     0.080
     223.63    -0.040
     224.66    -0.072
     225.69    -0.060
     226.72     0.176
     227.75    -0.014
     228.78    -0.110
     229.81    -0.085
     230.84     0.174
     231.87    -0.073
     232.90    -0.098
     233.93     0.051
     234.96    -0.037
     235.99     0.118
     237.02     0.128
     238.05     0.151
     239.08     0.060
     240.11    -0.142
     241.14    -0.085
     242.18    -0.110
     243.21     0.103
     244.24    -0.045
     245.27    -0.094
     246.30     0.120
     247.33     0.084
     248.36    -0.024
     249.39    -0.148
     250.42    -0.080
     251.45    -0.084
     252.48    -0.040
     253.51     0.087
     254.54    -0.212
     255.57     0.048
     256.60    -0.057
     257.63     0.002
     258.66     0.168
     259.69     0.050
     260.72     0.126
     261.76     0.044
     262.79     0.108
     263.82     0.015
     264.85     0.227
     265.88     0.040
     266.91    -0.154
     267.94    -0.014
     268.97    -0.013
     270.00     0.166
     271.03     0.106
     272.06     0.122
     273.09    -0.021
     274.12     0.023
     275.15     0.031
     276.18     0.032
     277.21    -0.178
     278.24    -0.004
     279.27     0.032
     280.30    -0.032
     281.34    -0.001
     282.37    -0.149
     283.40    -0.036
     284.43    -0.062
     285.46    -0.045
     286.49     0.146
     287.52    -0.182
     288.55    -0.077
     289.58    -0.065
     290.61     0.023
     291.64     0.076
     292.67     0.111
     293.70     0.002
     294.73     0.016
     295.76     0.011
     296.79    -0.078
     297.82     0.111
     298.85     0.074
     299.88    -0.068
     300.92     0.079
     301.95     0.036
     302.98    -0.037
     304.01    -0.176
     305.04    -0.206
     306.07    -0.160
     307.10    -0.114
     308.13    -0.022
     309.16     0.083
     310.19    -0.020
     311.22     0.026
     312.25     0.011
     313.28    -0.001
     314.31    -0.218
     315.34     0.043
     316.37    -0.204
     317.40     0.014
     318.43     0.247
     319.47    -0.020
     320.50     0.148
     321.53     0.062
     322.56     0.030
     323.59    -0.033
     324.62     0.002
     325.65     0.038
     326.68     0.110
     327.71    -0.060
     328.74    -0.041
     329.77    -0.025
     330.80    -0.057
     331.83     0.110
     332.86    -0.148
     333.89    -0.054
     334.92     0.127
     335.95     0.096
     336.98    -0.277
     338.01     0.118
     339.05    -0.100
     340.08     0.076
     341.11    -0.012
     342.14     0.095
     343.17     0.072
     344.20     0.231
     345.23    -0.006
     346.26    -0.062
     347.29     0.142
     348.32     0.035
     349.35    -0.081
     350.38     0.027
     351.41    -0.077
     352.44    -0.018
     353.47    -0.017
     354.50     0.062
     355.53    -0.257
     356.56    -0.058
     357.59    -0.014
     358.63     0.011
     359.66     0.083
     360.69     0.044
     361.72     0.023
     362.75    -0.090
     363.78    -0.076
     364.81    -0.064
     365.84     0.056
     366.87     0.086
     367.90     0.028
     368.93     0.211
     369.96    -0.126
     370.99    -0.013
     372.02    -0.089
     373.05    -0.001
     374.08    -0.049
     375.11    -0.132
     376.14     0.036
     377.17    -0.033
     378.21     0.143
     379.24     0.099
     380.27     0.080
     381.30     0.110
     382.33    -0.005
     383.36     0.150
     384.39    -0.110
     385.42    -0.038
     386.45    -0.029
     387.48     0.019
     388.51     0.164
     389.54     0.055
     390.57     0.019
     391.60     0.066
     392.63    -0.034
     393.66     0.223
     394.69     0.030
     395.72    -0.025
     396.76    -0.072
     397.79    -0.086
     398.82    -0.034
     399.85     0.407
