%%            108.00000            -2.00000    0             0.12700
% LAB  survey ------------------
% wanted position:  l, b, RA, DEC, and interpolated  NH
%108.00 ;  -2.00 ; 344.21 ;  57.51 ;  0.559E+22
% nearest position: l, b, RA, DEC, and observed NH
%108.00 ;  -2.00 ; 344.21 ;  57.51 ;  0.559E+22
% GASS III survey --------------
% NH - median within 6 arcmin radius   0.00    
% NH - mean within specified beam      0.00    
% EBHIS survey -----------------
% NH  within specified beam           0.554E+22
%%EBHIS   621  datapoints: v_lsr [km/s] and T_B [K]
    -399.25     0.027
    -397.96     0.051
    -396.68    -0.039
    -395.39     0.012
    -394.10    -0.127
    -392.81     0.006
    -391.52    -0.036
    -390.23    -0.001
    -388.95    -0.036
    -387.66     0.145
    -386.37    -0.060
    -385.08     0.078
    -383.79     0.027
    -382.50     0.093
    -381.22    -0.025
    -379.93     0.033
    -378.64     0.122
    -377.35    -0.068
    -376.06    -0.053
    -374.78    -0.056
    -373.49     0.057
    -372.20     0.120
    -370.91     0.033
    -369.62     0.038
    -368.33     0.005
    -367.05     0.021
    -365.76    -0.136
    -364.47     0.111
    -363.18     0.010
    -361.89     0.131
    -360.60    -0.013
    -359.32    -0.080
    -358.03    -0.006
    -356.74     0.044
    -355.45    -0.001
    -354.16     0.079
    -352.88    -0.081
    -351.59     0.063
    -350.30     0.194
    -349.01     0.025
    -347.72     0.076
    -346.43    -0.060
    -345.15    -0.157
    -343.86     0.018
    -342.57    -0.036
    -341.28     0.019
    -339.99     0.047
    -338.70    -0.045
    -337.42     0.148
    -336.13     0.150
    -334.84     0.186
    -333.55    -0.126
    -332.26     0.105
    -330.98    -0.021
    -329.69    -0.082
    -328.40    -0.061
    -327.11     0.008
    -325.82     0.011
    -324.53     0.033
    -323.25    -0.081
    -321.96     0.092
    -320.67    -0.016
    -319.38     0.037
    -318.09     0.097
    -316.80     0.009
    -315.52     0.160
    -314.23    -0.124
    -312.94    -0.057
    -311.65     0.061
    -310.36    -0.057
    -309.08     0.018
    -307.79     0.002
    -306.50     0.118
    -305.21     0.049
    -303.92    -0.037
    -302.63     0.011
    -301.35    -0.079
    -300.06     0.091
    -298.77    -0.105
    -297.48     0.026
    -296.19     0.049
    -294.90    -0.029
    -293.62     0.011
    -292.33     0.047
    -291.04     0.118
    -289.75     0.010
    -288.46    -0.020
    -287.18    -0.133
    -285.89    -0.085
    -284.60     0.041
    -283.31     0.073
    -282.02     0.134
    -280.73     0.072
    -279.45     0.080
    -278.16     0.169
    -276.87     0.045
    -275.58     0.204
    -274.29     0.121
    -273.00     0.121
    -271.72     0.188
    -270.43    -0.035
    -269.14    -0.070
    -267.85    -0.038
    -266.56    -0.003
    -265.28    -0.050
    -263.99    -0.112
    -262.70     0.120
    -261.41     0.031
    -260.12    -0.042
    -258.83    -0.039
    -257.55     0.089
    -256.26    -0.036
    -254.97    -0.029
    -253.68    -0.044
    -252.39    -0.061
    -251.10    -0.118
    -249.82    -0.083
    -248.53    -0.043
    -247.24    -0.089
    -245.95     0.037
    -244.66    -0.053
    -243.38    -0.058
    -242.09     0.034
    -240.80     0.097
    -239.51    -0.110
    -238.22    -0.101
    -236.93    -0.037
    -235.65     0.088
    -234.36     0.124
    -233.07    -0.027
    -231.78     0.098
    -230.49     0.037
    -229.20     0.008
    -227.92    -0.164
    -226.63    -0.029
    -225.34    -0.010
    -224.05     0.201
    -222.76    -0.102
    -221.48    -0.169
    -220.19     0.031
    -218.90     0.085
    -217.61     0.092
    -216.32    -0.035
    -215.03     0.036
    -213.75    -0.174
    -212.46     0.031
    -211.17    -0.018
    -209.88    -0.001
    -208.59     0.014
    -207.30    -0.004
    -206.02     0.069
    -204.73    -0.032
    -203.44     0.074
    -202.15     0.041
    -200.86     0.117
    -199.58     0.153
    -198.29     0.003
    -197.00    -0.023
    -195.71    -0.097
    -194.42     0.093
    -193.13     0.111
    -191.85    -0.005
    -190.56    -0.150
    -189.27     0.077
    -187.98     0.060
    -186.69     0.071
    -185.40     0.043
    -184.12     0.052
    -182.83    -0.128
    -181.54     0.056
    -180.25     0.020
    -178.96     0.030
    -177.68    -0.074
    -176.39     0.202
    -175.10     0.023
    -173.81    -0.007
    -172.52     0.006
    -171.23    -0.073
    -169.95     0.041
    -168.66    -0.040
    -167.37    -0.208
    -166.08     0.044
    -164.79     0.047
    -163.50     0.080
    -162.22     0.167
    -160.93     0.134
    -159.64     0.038
    -158.35     0.186
    -157.06     0.055
    -155.78     0.128
    -154.49     0.098
    -153.20     0.176
    -151.91     0.133
    -150.62     0.190
    -149.33     0.351
    -148.05     0.277
    -146.76     0.551
    -145.47     0.487
    -144.18     0.536
    -142.89     0.610
    -141.60     0.773
    -140.32     0.834
    -139.03     1.223
    -137.74     1.585
    -136.45     1.769
    -135.16     1.520
    -133.88     1.476
    -132.59     1.352
    -131.30     1.456
    -130.01     1.566
    -128.72     1.714
    -127.43     1.919
    -126.15     1.998
    -124.86     1.998
    -123.57     2.029
    -122.28     2.342
    -120.99     2.403
    -119.70     2.341
    -118.42     2.421
    -117.13     2.437
    -115.84     2.349
    -114.55     2.332
    -113.26     2.320
    -111.98     2.360
    -110.69     2.089
    -109.40     2.027
    -108.11     2.019
    -106.82     1.823
    -105.53     1.520
    -104.25     1.651
    -102.96     1.912
    -101.67     1.856
    -100.38     1.916
     -99.09     2.089
     -97.80     2.049
     -96.52     2.279
     -95.23     2.618
     -93.94     2.705
     -92.65     3.091
     -91.36     3.327
     -90.08     3.766
     -88.79     4.348
     -87.50     4.674
     -86.21     5.312
     -84.92     5.850
     -83.63     6.469
     -82.35     7.247
     -81.06     7.740
     -79.77     8.296
     -78.48     8.763
     -77.19     9.127
     -75.90     9.833
     -74.62    10.285
     -73.33    11.069
     -72.04    11.705
     -70.75    12.711
     -69.46    13.822
     -68.18    15.649
     -66.89    17.731
     -65.60    20.563
     -64.31    23.029
     -63.02    25.623
     -61.73    29.658
     -60.45    35.558
     -59.16    42.713
     -57.87    50.181
     -56.58    55.771
     -55.29    59.884
     -54.00    62.467
     -52.72    64.964
     -51.43    65.830
     -50.14    63.075
     -48.85    59.982
     -47.56    57.424
     -46.28    52.720
     -44.99    46.159
     -43.70    40.544
     -42.41    36.903
     -41.12    34.719
     -39.83    32.377
     -38.55    29.530
     -37.26    26.344
     -35.97    24.781
     -34.68    26.609
     -33.39    32.855
     -32.10    38.585
     -30.82    33.299
     -29.53    22.198
     -28.24    13.904
     -26.95     9.871
     -25.66     8.203
     -24.38     7.789
     -23.09     8.526
     -21.80    10.209
     -20.51    11.944
     -19.22    12.920
     -17.93    13.497
     -16.65    15.052
     -15.36    18.443
     -14.07    23.766
     -12.78    30.390
     -11.49    35.512
     -10.20    38.681
      -8.92    42.095
      -7.63    44.507
      -6.34    47.134
      -5.05    55.166
      -3.76    65.697
      -2.48    72.729
      -1.19    73.368
       0.10    63.605
       1.39    49.804
       2.68    37.752
       3.97    28.743
       5.25    21.181
       6.54    14.471
       7.83     9.768
       9.12     6.506
      10.41     4.630
      11.70     3.275
      12.98     2.465
      14.27     1.680
      15.56     1.237
      16.85     1.017
      18.14     0.597
      19.42     0.618
      20.71     0.504
      22.00     0.428
      23.29     0.234
      24.58     0.008
      25.87    -0.026
      27.15    -0.057
      28.44    -0.102
      29.73     0.189
      31.02     0.026
      32.31     0.084
      33.60     0.095
      34.88    -0.001
      36.17    -0.040
      37.46    -0.017
      38.75    -0.106
      40.04     0.124
      41.32    -0.007
      42.61     0.053
      43.90    -0.067
      45.19    -0.116
      46.48     0.104
      47.77    -0.026
      49.05     0.076
      50.34    -0.028
      51.63     0.084
      52.92    -0.028
      54.21    -0.091
      55.50    -0.254
      56.78    -0.047
      58.07    -0.057
      59.36     0.018
      60.65    -0.109
      61.94    -0.043
      63.22    -0.017
      64.51     0.064
      65.80    -0.045
      67.09     0.044
      68.38    -0.120
      69.67    -0.070
      70.95     0.012
      72.24     0.064
      73.53     0.076
      74.82     0.045
      76.11     0.068
      77.40    -0.175
      78.68     0.021
      79.97    -0.020
      81.26     0.142
      82.55    -0.051
      83.84     0.066
      85.12    -0.042
      86.41    -0.012
      87.70    -0.066
      88.99    -0.053
      90.28     0.079
      91.57    -0.050
      92.85    -0.015
      94.14    -0.042
      95.43     0.091
      96.72     0.065
      98.01     0.136
      99.30    -0.044
     100.58    -0.292
     101.87     0.007
     103.16    -0.041
     104.45    -0.065
     105.74     0.008
     107.02     0.012
     108.31    -0.021
     109.60    -0.040
     110.89     0.114
     112.18    -0.053
     113.47     0.032
     114.75     0.153
     116.04    -0.074
     117.33    -0.075
     118.62    -0.135
     119.91    -0.081
     121.20     0.000
     122.48    -0.005
     123.77    -0.039
     125.06     0.023
     126.35    -0.002
     127.64    -0.065
     128.92    -0.080
     130.21     0.004
     131.50     0.081
     132.79     0.025
     134.08    -0.093
     135.37    -0.050
     136.65    -0.037
     137.94    -0.096
     139.23    -0.088
     140.52    -0.151
     141.81    -0.160
     143.09     0.052
     144.38     0.159
     145.67    -0.018
     146.96    -0.013
     148.25    -0.108
     149.54    -0.030
     150.82    -0.100
     152.11     0.163
     153.40     0.042
     154.69     0.030
     155.98     0.064
     157.27    -0.046
     158.55    -0.052
     159.84     0.077
     161.13    -0.046
     162.42     0.058
     163.71    -0.097
     164.99    -0.046
     166.28     0.050
     167.57     0.047
     168.86    -0.052
     170.15    -0.160
     171.44     0.030
     172.72     0.032
     174.01    -0.027
     175.30     0.058
     176.59     0.029
     177.88    -0.057
     179.17    -0.132
     180.45    -0.022
     181.74    -0.033
     183.03    -0.010
     184.32    -0.121
     185.61     0.082
     186.89     0.006
     188.18    -0.034
     189.47     0.076
     190.76    -0.048
     192.05     0.026
     193.34     0.054
     194.62     0.015
     195.91     0.117
     197.20    -0.063
     198.49    -0.059
     199.78    -0.005
     201.07     0.086
     202.35     0.073
     203.64     0.132
     204.93     0.133
     206.22     0.117
     207.51     0.032
     208.79    -0.109
     210.08    -0.079
     211.37    -0.042
     212.66     0.078
     213.95    -0.071
     215.24     0.004
     216.52    -0.031
     217.81     0.042
     219.10    -0.067
     220.39     0.140
     221.68    -0.013
     222.97     0.096
     224.25     0.029
     225.54    -0.143
     226.83    -0.087
     228.12    -0.069
     229.41    -0.050
     230.69    -0.021
     231.98    -0.107
     233.27    -0.016
     234.56     0.017
     235.85    -0.127
     237.14     0.082
     238.42     0.060
     239.71    -0.065
     241.00    -0.044
     242.29     0.054
     243.58     0.009
     244.87     0.013
     246.15     0.125
     247.44    -0.039
     248.73    -0.007
     250.02     0.022
     251.31    -0.033
     252.59    -0.189
     253.88     0.013
     255.17    -0.036
     256.46    -0.138
     257.75    -0.114
     259.04     0.107
     260.32     0.064
     261.61    -0.038
     262.90    -0.131
     264.19    -0.029
     265.48    -0.081
     266.77     0.031
     268.05     0.153
     269.34     0.053
     270.63     0.088
     271.92    -0.035
     273.21    -0.017
     274.49    -0.082
     275.78     0.078
     277.07     0.074
     278.36    -0.010
     279.65    -0.069
     280.94    -0.043
     282.22    -0.047
     283.51     0.067
     284.80     0.096
     286.09    -0.124
     287.38    -0.048
     288.67     0.035
     289.95    -0.157
     291.24    -0.236
     292.53    -0.125
     293.82    -0.054
     295.11     0.065
     296.39    -0.076
     297.68     0.085
     298.97     0.063
     300.26    -0.076
     301.55    -0.048
     302.84    -0.109
     304.12     0.090
     305.41     0.032
     306.70    -0.001
     307.99     0.070
     309.28    -0.072
     310.57    -0.038
     311.85    -0.122
     313.14     0.081
     314.43     0.175
     315.72    -0.076
     317.01    -0.040
     318.29     0.022
     319.58     0.127
     320.87     0.002
     322.16    -0.076
     323.45    -0.073
     324.74     0.086
     326.02    -0.062
     327.31     0.062
     328.60    -0.037
     329.89    -0.114
     331.18    -0.076
     332.47    -0.049
     333.75    -0.021
     335.04     0.003
     336.33     0.001
     337.62    -0.038
     338.91    -0.041
     340.19    -0.006
     341.48     0.021
     342.77     0.045
     344.06     0.060
     345.35    -0.020
     346.64     0.089
     347.92    -0.085
     349.21    -0.047
     350.50     0.028
     351.79     0.127
     353.08    -0.055
     354.37     0.046
     355.65     0.113
     356.94     0.211
     358.23    -0.061
     359.52     0.023
     360.81    -0.027
     362.09    -0.013
     363.38    -0.060
     364.67     0.050
     365.96    -0.105
     367.25     0.118
     368.54     0.057
     369.82    -0.005
     371.11     0.028
     372.40     0.052
     373.69     0.049
     374.98     0.128
     376.27     0.089
     377.55     0.036
     378.84     0.029
     380.13    -0.027
     381.42     0.012
     382.71     0.038
     383.99    -0.024
     385.28    -0.012
     386.57    -0.042
     387.86     0.020
     389.15     0.040
     390.44    -0.014
     391.72    -0.048
     393.01    -0.069
     394.30     0.069
     395.59    -0.021
     396.88     0.108
     398.17     0.021
     399.45     0.159
%%GASS      0  datapoints: v_lsr [km/s] and T_B [K] for beam weighted average and median within 6 arcmin
%%LAB     777  datapoints: v_lsr [km/s] and T_B [K]
    -399.85    -0.079
    -398.82     0.058
    -397.79     0.100
    -396.76    -0.024
    -395.72    -0.097
    -394.69     0.057
    -393.66    -0.095
    -392.63    -0.023
    -391.60    -0.035
    -390.57    -0.163
    -389.54    -0.105
    -388.51    -0.265
    -387.48    -0.250
    -386.45    -0.237
    -385.42    -0.040
    -384.39    -0.164
    -383.36    -0.005
    -382.33    -0.066
    -381.30     0.001
    -380.27    -0.022
    -379.24    -0.009
    -378.21    -0.024
    -377.17     0.056
    -376.14     0.011
    -375.11     0.059
    -374.08    -0.088
    -373.05     0.033
    -372.02    -0.071
    -370.99     0.151
    -369.96     0.033
    -368.93    -0.050
    -367.90    -0.090
    -366.87     0.081
    -365.84    -0.131
    -364.81     0.040
    -363.78     0.171
    -362.75    -0.080
    -361.72    -0.061
    -360.69    -0.156
    -359.66     0.129
    -358.63     0.209
    -357.59    -0.050
    -356.56    -0.028
    -355.53     0.117
    -354.50     0.020
    -353.47    -0.026
    -352.44     0.045
    -351.41     0.090
    -350.38     0.002
    -349.35     0.067
    -348.32    -0.032
    -347.29     0.035
    -346.26     0.033
    -345.23     0.060
    -344.20     0.202
    -343.17    -0.024
    -342.14    -0.086
    -341.11     0.062
    -340.08     0.052
    -339.05     0.068
    -338.01    -0.058
    -336.98     0.040
    -335.95     0.001
    -334.92     0.073
    -333.89    -0.051
    -332.86    -0.083
    -331.83    -0.099
    -330.80    -0.131
    -329.77    -0.073
    -328.74     0.090
    -327.71    -0.116
    -326.68     0.142
    -325.65     0.045
    -324.62     0.126
    -323.59    -0.060
    -322.56    -0.010
    -321.53     0.003
    -320.50    -0.033
    -319.47     0.083
    -318.43     0.037
    -317.40    -0.012
    -316.37    -0.108
    -315.34     0.037
    -314.31    -0.003
    -313.28     0.078
    -312.25    -0.149
    -311.22    -0.107
    -310.19     0.103
    -309.16    -0.136
    -308.13    -0.071
    -307.10     0.048
    -306.07    -0.086
    -305.04     0.106
    -304.01    -0.092
    -302.98     0.130
    -301.95    -0.147
    -300.92     0.094
    -299.88    -0.097
    -298.85    -0.074
    -297.82     0.006
    -296.79    -0.014
    -295.76     0.067
    -294.73    -0.013
    -293.70     0.153
    -292.67    -0.021
    -291.64    -0.108
    -290.61     0.046
    -289.58     0.048
    -288.55     0.026
    -287.52     0.160
    -286.49     0.030
    -285.46    -0.032
    -284.43     0.043
    -283.40     0.073
    -282.37     0.024
    -281.34    -0.175
    -280.30     0.008
    -279.27    -0.086
    -278.24    -0.009
    -277.21     0.086
    -276.18     0.134
    -275.15     0.034
    -274.12     0.124
    -273.09     0.125
    -272.06    -0.068
    -271.03     0.078
    -270.00     0.178
    -268.97     0.100
    -267.94    -0.130
    -266.91     0.007
    -265.88     0.069
    -264.85     0.145
    -263.82     0.005
    -262.79    -0.002
    -261.76    -0.024
    -260.72    -0.014
    -259.69     0.009
    -258.66    -0.138
    -257.63     0.008
    -256.60     0.015
    -255.57     0.041
    -254.54     0.073
    -253.51     0.074
    -252.48     0.027
    -251.45     0.021
    -250.42     0.059
    -249.39    -0.041
    -248.36    -0.047
    -247.33    -0.087
    -246.30    -0.076
    -245.27     0.055
    -244.24     0.134
    -243.21    -0.016
    -242.18    -0.022
    -241.14     0.078
    -240.11    -0.051
    -239.08     0.039
    -238.05    -0.031
    -237.02     0.036
    -235.99     0.078
    -234.96    -0.050
    -233.93    -0.020
    -232.90     0.011
    -231.87    -0.007
    -230.84     0.132
    -229.81    -0.214
    -228.78    -0.033
    -227.75    -0.107
    -226.72     0.181
    -225.69    -0.033
    -224.66    -0.061
    -223.63    -0.219
    -222.60    -0.011
    -221.56     0.065
    -220.53     0.124
    -219.50    -0.107
    -218.47    -0.028
    -217.44     0.131
    -216.41    -0.073
    -215.38    -0.147
    -214.35     0.002
    -213.32    -0.076
    -212.29     0.113
    -211.26     0.035
    -210.23     0.105
    -209.20    -0.102
    -208.17    -0.065
    -207.14    -0.042
    -206.11    -0.007
    -205.08     0.031
    -204.05     0.063
    -203.01     0.058
    -201.98    -0.122
    -200.95    -0.033
    -199.92     0.189
    -198.89    -0.026
    -197.86     0.027
    -196.83    -0.146
    -195.80     0.001
    -194.77    -0.085
    -193.74    -0.113
    -192.71    -0.019
    -191.68     0.039
    -190.65     0.024
    -189.62     0.001
    -188.59    -0.175
    -187.56     0.136
    -186.53     0.126
    -185.50     0.094
    -184.47     0.096
    -183.43     0.033
    -182.40    -0.057
    -181.37     0.144
    -180.34     0.063
    -179.31     0.145
    -178.28     0.010
    -177.25    -0.014
    -176.22    -0.016
    -175.19    -0.037
    -174.16     0.037
    -173.13    -0.057
    -172.10     0.071
    -171.07    -0.088
    -170.04     0.100
    -169.01    -0.084
    -167.98     0.011
    -166.95     0.201
    -165.92     0.062
    -164.89     0.170
    -163.85     0.104
    -162.82    -0.094
    -161.79     0.161
    -160.76     0.200
    -159.73    -0.119
    -158.70     0.190
    -157.67     0.052
    -156.64     0.176
    -155.61    -0.061
    -154.58     0.225
    -153.55     0.241
    -152.52     0.220
    -151.49     0.218
    -150.46     0.228
    -149.43     0.191
    -148.40     0.154
    -147.37     0.420
    -146.34     0.301
    -145.31     0.349
    -144.27     0.374
    -143.24     0.471
    -142.21     0.585
    -141.18     0.669
    -140.15     0.857
    -139.12     0.824
    -138.09     1.096
    -137.06     1.126
    -136.03     1.219
    -135.00     1.302
    -133.97     1.286
    -132.94     1.414
    -131.91     1.356
    -130.88     1.565
    -129.85     1.672
    -128.82     1.652
    -127.79     1.981
    -126.76     1.999
    -125.72     2.271
    -124.69     2.518
    -123.66     2.355
    -122.63     2.559
    -121.60     2.665
    -120.57     2.688
    -119.54     2.662
    -118.51     2.593
    -117.48     2.691
    -116.45     2.537
    -115.42     2.758
    -114.39     2.395
    -113.36     2.557
    -112.33     2.322
    -111.30     2.358
    -110.27     2.368
    -109.24     2.036
    -108.21     2.141
    -107.18     1.830
    -106.14     1.847
    -105.11     1.813
    -104.08     1.618
    -103.05     1.565
    -102.02     1.455
    -100.99     1.379
     -99.96     1.416
     -98.93     1.491
     -97.90     1.510
     -96.87     1.645
     -95.84     1.713
     -94.81     1.970
     -93.78     2.310
     -92.75     2.415
     -91.72     2.871
     -90.69     3.171
     -89.66     3.529
     -88.63     3.836
     -87.60     4.080
     -86.56     4.460
     -85.53     4.556
     -84.50     5.147
     -83.47     5.551
     -82.44     6.003
     -81.41     6.601
     -80.38     6.950
     -79.35     7.440
     -78.32     8.003
     -77.29     8.544
     -76.26     9.106
     -75.23     9.818
     -74.20    10.453
     -73.17    10.895
     -72.14    11.571
     -71.11    12.366
     -70.08    13.501
     -69.05    14.608
     -68.02    16.211
     -66.98    17.921
     -65.95    19.758
     -64.92    21.525
     -63.89    23.663
     -62.86    25.657
     -61.83    28.380
     -60.80    31.972
     -59.77    36.553
     -58.74    41.606
     -57.71    46.962
     -56.68    51.822
     -55.65    56.972
     -54.62    61.467
     -53.59    64.612
     -52.56    68.038
     -51.53    70.132
     -50.50    68.941
     -49.47    66.113
     -48.44    62.793
     -47.40    59.036
     -46.37    54.030
     -45.34    48.627
     -44.31    43.011
     -43.28    38.447
     -42.25    34.837
     -41.22    32.136
     -40.19    30.801
     -39.16    29.221
     -38.13    27.987
     -37.10    27.308
     -36.07    27.026
     -35.04    28.256
     -34.01    31.519
     -32.98    35.579
     -31.95    38.187
     -30.92    34.734
     -29.89    26.377
     -28.85    18.067
     -27.82    12.694
     -26.79     9.925
     -25.76     8.411
     -24.73     7.805
     -23.70     7.800
     -22.67     8.476
     -21.64     9.680
     -20.61    11.454
     -19.58    13.061
     -18.55    14.520
     -17.52    15.974
     -16.49    17.316
     -15.46    19.435
     -14.43    22.782
     -13.40    27.217
     -12.37    32.401
     -11.34    37.038
     -10.31    40.902
      -9.27    44.015
      -8.24    46.299
      -7.21    48.128
      -6.18    50.481
      -5.15    54.686
      -4.12    61.531
      -3.09    68.012
      -2.06    72.909
      -1.03    72.960
       0.00    66.763
       1.03    55.379
       2.06    44.772
       3.09    36.001
       4.12    29.095
       5.15    22.513
       6.18    16.589
       7.21    11.515
       8.24     8.683
       9.27     6.411
      10.31     5.394
      11.34     4.233
      12.37     3.314
      13.40     2.512
      14.43     1.899
      15.46     1.470
      16.49     0.943
      17.52     0.956
      18.55     0.987
      19.58     0.617
      20.61     0.425
      21.64     0.292
      22.67     0.433
      23.70     0.056
      24.73     0.216
      25.76     0.186
      26.79     0.037
      27.82     0.202
      28.85     0.082
      29.89     0.133
      30.92     0.212
      31.95    -0.051
      32.98     0.021
      34.01    -0.046
      35.04     0.055
      36.07     0.124
      37.10    -0.043
      38.13     0.018
      39.16     0.069
      40.19     0.009
      41.22     0.094
      42.25     0.009
      43.28    -0.005
      44.31    -0.058
      45.34    -0.062
      46.37    -0.098
      47.40     0.015
      48.44     0.100
      49.47     0.093
      50.50     0.002
      51.53     0.052
      52.56    -0.035
      53.59    -0.041
      54.62    -0.027
      55.65     0.074
      56.68    -0.083
      57.71    -0.031
      58.74     0.034
      59.77     0.093
      60.80    -0.043
      61.83    -0.005
      62.86    -0.014
      63.89     0.186
      64.92     0.034
      65.95    -0.123
      66.98     0.033
      68.02     0.124
      69.05     0.066
      70.08     0.117
      71.11    -0.085
      72.14     0.002
      73.17    -0.100
      74.20     0.046
      75.23     0.131
      76.26    -0.051
      77.29     0.007
      78.32     0.048
      79.35    -0.113
      80.38    -0.052
      81.41     0.149
      82.44    -0.050
      83.47     0.036
      84.50     0.005
      85.53     0.026
      86.56    -0.030
      87.60     0.063
      88.63     0.035
      89.66    -0.071
      90.69    -0.027
      91.72    -0.017
      92.75     0.345
      93.78     0.036
      94.81     0.100
      95.84     0.066
      96.87     0.233
      97.90     0.052
      98.93     0.011
      99.96    -0.039
     100.99     0.008
     102.02    -0.052
     103.05     0.045
     104.08    -0.149
     105.11     0.057
     106.14    -0.168
     107.18    -0.039
     108.21    -0.038
     109.24     0.074
     110.27     0.067
     111.30     0.121
     112.33     0.087
     113.36     0.040
     114.39     0.124
     115.42     0.142
     116.45    -0.054
     117.48    -0.038
     118.51     0.020
     119.54    -0.200
     120.57    -0.076
     121.60    -0.077
     122.63    -0.004
     123.66     0.076
     124.69     0.084
     125.72     0.036
     126.76     0.048
     127.79     0.019
     128.82    -0.051
     129.85     0.029
     130.88     0.072
     131.91     0.125
     132.94     0.091
     133.97     0.005
     135.00     0.019
     136.03     0.022
     137.06    -0.009
     138.09    -0.033
     139.12    -0.132
     140.15    -0.152
     141.18    -0.226
     142.21     0.050
     143.24    -0.109
     144.27     0.031
     145.31    -0.019
     146.34    -0.220
     147.37    -0.058
     148.40    -0.131
     149.43    -0.161
     150.46     0.050
     151.49    -0.076
     152.52     0.073
     153.55    -0.084
     154.58     0.110
     155.61    -0.058
     156.64     0.006
     157.67    -0.076
     158.70    -0.066
     159.73     0.153
     160.76     0.120
     161.79     0.074
     162.82     0.088
     163.85    -0.010
     164.89     0.084
     165.92    -0.071
     166.95     0.010
     167.98    -0.004
     169.01    -0.065
     170.04    -0.057
     171.07     0.120
     172.10     0.017
     173.13     0.027
     174.16    -0.073
     175.19     0.082
     176.22     0.029
     177.25    -0.157
     178.28    -0.050
     179.31    -0.097
     180.34     0.003
     181.37    -0.056
     182.40     0.076
     183.43     0.188
     184.47     0.066
     185.50     0.088
     186.53    -0.023
     187.56    -0.085
     188.59     0.009
     189.62     0.148
     190.65     0.096
     191.68     0.055
     192.71    -0.047
     193.74     0.098
     194.77     0.095
     195.80     0.115
     196.83    -0.055
     197.86     0.017
     198.89    -0.239
     199.92    -0.089
     200.95     0.085
     201.98     0.052
     203.01    -0.009
     204.05    -0.210
     205.08    -0.088
     206.11     0.168
     207.14     0.007
     208.17    -0.077
     209.20    -0.002
     210.23     0.107
     211.26     0.069
     212.29    -0.036
     213.32    -0.042
     214.35     0.065
     215.38     0.017
     216.41     0.019
     217.44    -0.035
     218.47    -0.076
     219.50    -0.010
     220.53    -0.010
     221.56    -0.114
     222.60    -0.050
     223.63     0.026
     224.66     0.094
     225.69    -0.066
     226.72     0.083
     227.75    -0.037
     228.78     0.093
     229.81    -0.033
     230.84    -0.014
     231.87    -0.030
     232.90     0.045
     233.93     0.068
     234.96     0.090
     235.99     0.007
     237.02     0.087
     238.05     0.102
     239.08    -0.012
     240.11     0.035
     241.14     0.050
     242.18     0.187
     243.21    -0.013
     244.24    -0.086
     245.27     0.090
     246.30     0.135
     247.33     0.094
     248.36     0.053
     249.39    -0.047
     250.42    -0.032
     251.45     0.123
     252.48    -0.051
     253.51    -0.077
     254.54    -0.055
     255.57    -0.068
     256.60    -0.049
     257.63     0.057
     258.66     0.052
     259.69    -0.108
     260.72    -0.269
     261.76    -0.055
     262.79    -0.002
     263.82     0.011
     264.85    -0.115
     265.88     0.036
     266.91    -0.043
     267.94    -0.032
     268.97    -0.083
     270.00     0.081
     271.03     0.050
     272.06    -0.022
     273.09     0.003
     274.12     0.179
     275.15     0.102
     276.18    -0.166
     277.21    -0.038
     278.24     0.146
     279.27    -0.046
     280.30    -0.014
     281.34     0.057
     282.37    -0.086
     283.40    -0.096
     284.43     0.043
     285.46    -0.061
     286.49     0.066
     287.52    -0.045
     288.55     0.048
     289.58    -0.054
     290.61     0.040
     291.64    -0.084
     292.67     0.085
     293.70    -0.140
     294.73     0.084
     295.76     0.027
     296.79    -0.104
     297.82     0.012
     298.85     0.064
     299.89     0.018
     300.92    -0.080
     301.95     0.049
     302.98    -0.010
     304.01     0.110
     305.04     0.117
     306.07     0.057
     307.10     0.155
     308.13    -0.245
     309.16     0.041
     310.19     0.009
     311.22     0.120
     312.25    -0.117
     313.28     0.088
     314.31     0.049
     315.34     0.027
     316.37     0.098
     317.40     0.086
     318.43    -0.198
     319.47     0.078
     320.50     0.016
     321.53    -0.012
     322.56     0.057
     323.59     0.101
     324.62     0.115
     325.65    -0.061
     326.68    -0.002
     327.71     0.000
     328.74    -0.051
     329.77     0.145
     330.80    -0.045
     331.83     0.008
     332.86    -0.001
     333.89    -0.017
     334.92    -0.199
     335.95     0.073
     336.98     0.006
     338.01    -0.143
     339.05    -0.065
     340.08    -0.078
     341.11    -0.048
     342.14    -0.036
     343.17    -0.090
     344.20     0.096
     345.23    -0.066
     346.26    -0.022
     347.29    -0.050
     348.32     0.003
     349.35     0.014
     350.38    -0.262
     351.41    -0.028
     352.44     0.062
     353.47    -0.216
     354.50     0.043
     355.53    -0.010
     356.56     0.064
     357.59    -0.154
     358.63    -0.064
     359.66    -0.001
     360.69     0.109
     361.72     0.020
     362.75     0.214
     363.78     0.081
     364.81    -0.064
     365.84    -0.067
     366.87    -0.056
     367.90     0.123
     368.93    -0.035
     369.96    -0.024
     370.99    -0.075
     372.02    -0.030
     373.05     0.181
     374.08    -0.030
     375.11    -0.070
     376.14     0.046
     377.17     0.155
     378.21    -0.132
     379.24     0.161
     380.27    -0.073
     381.30     0.189
     382.33     0.018
     383.36    -0.064
     384.39    -0.176
     385.42     0.019
     386.45    -0.173
     387.48    -0.031
     388.51     0.027
     389.54    -0.021
     390.57    -0.185
     391.60     0.011
     392.63     0.020
     393.66     0.112
     394.69    -0.062
     395.72     0.048
     396.76     0.034
     397.79     0.024
     398.82     0.021
     399.85     0.028
