%%            110.00000            -2.00000    0             0.12700
% LAB  survey ------------------
% wanted position:  l, b, RA, DEC, and interpolated  NH
%110.00 ;  -2.00 ; 347.66 ;  58.32 ;  0.639E+22
% nearest position: l, b, RA, DEC, and observed NH
%110.00 ;  -2.00 ; 347.66 ;  58.32 ;  0.639E+22
% GASS III survey --------------
% NH - median within 6 arcmin radius   0.00    
% NH - mean within specified beam      0.00    
% EBHIS survey -----------------
% NH  within specified beam           0.688E+22
%%EBHIS   621  datapoints: v_lsr [km/s] and T_B [K]
    -399.25     0.075
    -397.96    -0.016
    -396.68     0.091
    -395.39    -0.030
    -394.10    -0.075
    -392.81    -0.031
    -391.52     0.011
    -390.23     0.088
    -388.95     0.085
    -387.66     0.018
    -386.37    -0.054
    -385.08     0.064
    -383.79     0.036
    -382.50    -0.102
    -381.22    -0.006
    -379.93     0.108
    -378.64     0.032
    -377.35    -0.003
    -376.06     0.092
    -374.78     0.088
    -373.49    -0.053
    -372.20     0.114
    -370.91     0.101
    -369.62    -0.035
    -368.33     0.005
    -367.05     0.204
    -365.76    -0.124
    -364.47    -0.036
    -363.18    -0.079
    -361.89     0.003
    -360.60     0.005
    -359.32    -0.015
    -358.03     0.077
    -356.74     0.013
    -355.45    -0.040
    -354.16    -0.046
    -352.88    -0.053
    -351.59     0.029
    -350.30     0.162
    -349.01    -0.034
    -347.72    -0.133
    -346.43     0.032
    -345.15     0.083
    -343.86     0.068
    -342.57    -0.063
    -341.28    -0.051
    -339.99     0.063
    -338.70     0.106
    -337.42     0.123
    -336.13     0.002
    -334.84    -0.080
    -333.55    -0.045
    -332.26    -0.075
    -330.98    -0.021
    -329.69     0.079
    -328.40     0.021
    -327.11     0.001
    -325.82     0.009
    -324.53    -0.095
    -323.25    -0.086
    -321.96     0.008
    -320.67     0.086
    -319.38     0.021
    -318.09     0.077
    -316.80     0.039
    -315.52    -0.074
    -314.23     0.088
    -312.94    -0.009
    -311.65    -0.003
    -310.36    -0.033
    -309.08     0.059
    -307.79     0.208
    -306.50     0.083
    -305.21    -0.084
    -303.92     0.042
    -302.63     0.075
    -301.35     0.029
    -300.06    -0.247
    -298.77    -0.072
    -297.48    -0.108
    -296.19     0.089
    -294.90    -0.017
    -293.62     0.090
    -292.33    -0.071
    -291.04    -0.010
    -289.75     0.095
    -288.46     0.054
    -287.18     0.080
    -285.89    -0.013
    -284.60    -0.054
    -283.31    -0.221
    -282.02    -0.006
    -280.73    -0.042
    -279.45    -0.139
    -278.16     0.067
    -276.87    -0.005
    -275.58    -0.017
    -274.29    -0.098
    -273.00     0.024
    -271.72    -0.001
    -270.43     0.003
    -269.14     0.127
    -267.85     0.099
    -266.56    -0.049
    -265.28     0.175
    -263.99     0.162
    -262.70     0.014
    -261.41    -0.019
    -260.12     0.009
    -258.83     0.023
    -257.55     0.092
    -256.26    -0.030
    -254.97    -0.038
    -253.68    -0.187
    -252.39     0.103
    -251.10     0.049
    -249.82    -0.016
    -248.53    -0.095
    -247.24    -0.055
    -245.95    -0.007
    -244.66    -0.053
    -243.38     0.141
    -242.09     0.031
    -240.80    -0.015
    -239.51     0.020
    -238.22    -0.024
    -236.93    -0.048
    -235.65    -0.068
    -234.36     0.039
    -233.07     0.048
    -231.78     0.103
    -230.49     0.125
    -229.20     0.007
    -227.92    -0.018
    -226.63    -0.097
    -225.34     0.008
    -224.05     0.035
    -222.76    -0.041
    -221.48     0.061
    -220.19     0.075
    -218.90     0.034
    -217.61     0.092
    -216.32     0.003
    -215.03     0.071
    -213.75    -0.041
    -212.46    -0.079
    -211.17     0.032
    -209.88     0.042
    -208.59     0.008
    -207.30    -0.064
    -206.02     0.020
    -204.73    -0.008
    -203.44     0.003
    -202.15    -0.063
    -200.86     0.121
    -199.58    -0.003
    -198.29    -0.053
    -197.00    -0.015
    -195.71     0.076
    -194.42     0.010
    -193.13     0.043
    -191.85    -0.184
    -190.56     0.034
    -189.27    -0.002
    -187.98     0.083
    -186.69    -0.001
    -185.40    -0.082
    -184.12     0.083
    -182.83    -0.023
    -181.54    -0.094
    -180.25     0.016
    -178.96     0.136
    -177.68     0.061
    -176.39     0.111
    -175.10    -0.012
    -173.81     0.175
    -172.52     0.088
    -171.23     0.103
    -169.95     0.025
    -168.66    -0.032
    -167.37     0.096
    -166.08     0.071
    -164.79     0.183
    -163.50     0.075
    -162.22     0.244
    -160.93     0.199
    -159.64     0.148
    -158.35     0.044
    -157.06     0.190
    -155.78     0.122
    -154.49     0.186
    -153.20     0.279
    -151.91     0.270
    -150.62     0.473
    -149.33     0.326
    -148.05     0.242
    -146.76     0.297
    -145.47     0.357
    -144.18     0.357
    -142.89     0.407
    -141.60     0.528
    -140.32     0.594
    -139.03     0.542
    -137.74     0.548
    -136.45     0.647
    -135.16     0.772
    -133.88     0.789
    -132.59     0.911
    -131.30     1.094
    -130.01     1.016
    -128.72     1.195
    -127.43     1.420
    -126.15     1.511
    -124.86     1.497
    -123.57     1.728
    -122.28     1.991
    -120.99     2.316
    -119.70     2.463
    -118.42     2.842
    -117.13     2.834
    -115.84     2.912
    -114.55     2.852
    -113.26     2.791
    -111.98     2.774
    -110.69     2.805
    -109.40     2.880
    -108.11     2.882
    -106.82     2.820
    -105.53     2.996
    -104.25     2.988
    -102.96     3.040
    -101.67     3.167
    -100.38     3.178
     -99.09     3.171
     -97.80     3.191
     -96.52     3.175
     -95.23     3.394
     -93.94     3.312
     -92.65     3.462
     -91.36     3.628
     -90.08     3.461
     -88.79     3.738
     -87.50     3.851
     -86.21     4.142
     -84.92     4.487
     -83.63     5.056
     -82.35     5.587
     -81.06     6.191
     -79.77     7.065
     -78.48     7.884
     -77.19     9.016
     -75.90    10.253
     -74.62    11.314
     -73.33    12.355
     -72.04    13.585
     -70.75    14.644
     -69.46    15.822
     -68.18    17.498
     -66.89    18.901
     -65.60    19.893
     -64.31    20.716
     -63.02    21.340
     -61.73    21.863
     -60.45    24.316
     -59.16    31.880
     -57.87    42.462
     -56.58    50.500
     -55.29    56.478
     -54.00    60.791
     -52.72    65.235
     -51.43    69.905
     -50.14    73.607
     -48.85    75.694
     -47.56    78.676
     -46.28    82.424
     -44.99    85.475
     -43.70    87.236
     -42.41    86.498
     -41.12    84.411
     -39.83    81.231
     -38.55    76.369
     -37.26    69.120
     -35.97    61.233
     -34.68    52.673
     -33.39    43.544
     -32.10    34.680
     -30.82    26.318
     -29.53    19.554
     -28.24    14.692
     -26.95    11.411
     -25.66     9.539
     -24.38     8.484
     -23.09     8.075
     -21.80     8.378
     -20.51    10.084
     -19.22    14.453
     -17.93    21.522
     -16.65    29.141
     -15.36    33.000
     -14.07    30.595
     -12.78    27.082
     -11.49    26.333
     -10.20    27.592
      -8.92    31.247
      -7.63    37.045
      -6.34    47.093
      -5.05    62.283
      -3.76    77.443
      -2.48    86.279
      -1.19    87.583
       0.10    82.920
       1.39    71.204
       2.68    56.742
       3.97    41.805
       5.25    25.905
       6.54    16.732
       7.83    11.753
       9.12     8.389
      10.41     6.262
      11.70     4.843
      12.98     3.577
      14.27     2.809
      15.56     2.197
      16.85     1.727
      18.14     1.406
      19.42     1.211
      20.71     1.127
      22.00     0.839
      23.29     0.764
      24.58     0.713
      25.87     0.477
      27.15     0.474
      28.44     0.487
      29.73     0.319
      31.02     0.198
      32.31     0.362
      33.60     0.268
      34.88     0.276
      36.17     0.148
      37.46     0.198
      38.75     0.147
      40.04     0.036
      41.32     0.096
      42.61     0.071
      43.90     0.138
      45.19    -0.017
      46.48     0.019
      47.77     0.085
      49.05     0.014
      50.34    -0.025
      51.63     0.100
      52.92     0.022
      54.21     0.185
      55.50    -0.071
      56.78    -0.122
      58.07    -0.178
      59.36    -0.214
      60.65    -0.034
      61.94     0.036
      63.22     0.133
      64.51     0.110
      65.80    -0.048
      67.09     0.172
      68.38     0.063
      69.67    -0.007
      70.95     0.023
      72.24     0.046
      73.53     0.078
      74.82    -0.061
      76.11     0.031
      77.40    -0.101
      78.68    -0.097
      79.97     0.046
      81.26     0.018
      82.55     0.130
      83.84     0.010
      85.12    -0.111
      86.41     0.076
      87.70     0.021
      88.99    -0.126
      90.28    -0.099
      91.57    -0.087
      92.85    -0.082
      94.14     0.027
      95.43     0.142
      96.72    -0.002
      98.01     0.035
      99.30    -0.043
     100.58     0.031
     101.87    -0.001
     103.16    -0.062
     104.45    -0.122
     105.74    -0.106
     107.02    -0.050
     108.31     0.015
     109.60    -0.012
     110.89    -0.117
     112.18     0.068
     113.47    -0.109
     114.75    -0.131
     116.04    -0.105
     117.33     0.051
     118.62     0.083
     119.91    -0.041
     121.20    -0.056
     122.48    -0.204
     123.77    -0.126
     125.06    -0.108
     126.35    -0.089
     127.64     0.034
     128.92     0.017
     130.21    -0.152
     131.50     0.009
     132.79     0.004
     134.08     0.001
     135.37     0.009
     136.65    -0.042
     137.94     0.074
     139.23     0.142
     140.52    -0.032
     141.81     0.051
     143.09    -0.011
     144.38     0.093
     145.67    -0.122
     146.96    -0.067
     148.25     0.026
     149.54    -0.030
     150.82    -0.016
     152.11     0.046
     153.40     0.064
     154.69     0.035
     155.98     0.081
     157.27     0.015
     158.55    -0.051
     159.84    -0.086
     161.13     0.032
     162.42    -0.122
     163.71    -0.071
     164.99    -0.104
     166.28    -0.034
     167.57    -0.019
     168.86     0.035
     170.15    -0.182
     171.44    -0.128
     172.72    -0.071
     174.01     0.027
     175.30    -0.086
     176.59    -0.171
     177.88     0.051
     179.17    -0.023
     180.45     0.053
     181.74     0.006
     183.03    -0.006
     184.32    -0.044
     185.61     0.065
     186.89    -0.089
     188.18     0.236
     189.47     0.020
     190.76    -0.016
     192.05     0.009
     193.34    -0.108
     194.62     0.175
     195.91    -0.047
     197.20    -0.058
     198.49    -0.030
     199.78    -0.092
     201.07     0.041
     202.35    -0.003
     203.64    -0.135
     204.93    -0.078
     206.22     0.051
     207.51    -0.014
     208.79     0.115
     210.08     0.044
     211.37     0.023
     212.66     0.019
     213.95     0.072
     215.24     0.049
     216.52     0.037
     217.81    -0.099
     219.10    -0.010
     220.39    -0.077
     221.68    -0.012
     222.97     0.008
     224.25     0.195
     225.54     0.013
     226.83    -0.061
     228.12    -0.095
     229.41     0.061
     230.69    -0.021
     231.98    -0.105
     233.27    -0.158
     234.56    -0.088
     235.85     0.040
     237.14     0.034
     238.42     0.025
     239.71     0.012
     241.00     0.016
     242.29    -0.045
     243.58     0.051
     244.87    -0.040
     246.15    -0.088
     247.44    -0.137
     248.73    -0.075
     250.02    -0.030
     251.31     0.005
     252.59    -0.097
     253.88     0.062
     255.17    -0.032
     256.46     0.008
     257.75     0.016
     259.04     0.179
     260.32     0.095
     261.61     0.033
     262.90     0.058
     264.19    -0.098
     265.48    -0.123
     266.77    -0.005
     268.05     0.043
     269.34     0.027
     270.63     0.069
     271.92     0.089
     273.21     0.034
     274.49     0.001
     275.78    -0.026
     277.07    -0.032
     278.36     0.056
     279.65     0.067
     280.94    -0.111
     282.22    -0.063
     283.51    -0.123
     284.80     0.001
     286.09    -0.018
     287.38    -0.055
     288.67    -0.043
     289.95     0.006
     291.24     0.160
     292.53    -0.075
     293.82    -0.026
     295.11     0.104
     296.39     0.002
     297.68     0.054
     298.97    -0.003
     300.26    -0.009
     301.55    -0.084
     302.84     0.017
     304.12    -0.059
     305.41    -0.008
     306.70     0.095
     307.99    -0.136
     309.28     0.066
     310.57    -0.014
     311.85     0.005
     313.14     0.059
     314.43     0.134
     315.72     0.047
     317.01    -0.025
     318.29    -0.017
     319.58     0.086
     320.87     0.117
     322.16    -0.000
     323.45    -0.032
     324.74    -0.173
     326.02     0.007
     327.31    -0.004
     328.60     0.052
     329.89     0.002
     331.18     0.029
     332.47     0.025
     333.75     0.079
     335.04     0.096
     336.33     0.099
     337.62     0.063
     338.91     0.139
     340.19     0.041
     341.48     0.108
     342.77     0.059
     344.06    -0.000
     345.35    -0.037
     346.64     0.113
     347.92    -0.050
     349.21    -0.095
     350.50    -0.105
     351.79     0.083
     353.08    -0.017
     354.37     0.131
     355.65     0.073
     356.94     0.046
     358.23    -0.000
     359.52     0.068
     360.81    -0.053
     362.09     0.061
     363.38    -0.155
     364.67     0.156
     365.96     0.039
     367.25    -0.003
     368.54    -0.106
     369.82    -0.031
     371.11    -0.100
     372.40    -0.076
     373.69     0.037
     374.98     0.026
     376.27    -0.027
     377.55    -0.002
     378.84    -0.101
     380.13    -0.021
     381.42     0.065
     382.71     0.068
     383.99     0.036
     385.28    -0.039
     386.57     0.068
     387.86     0.014
     389.15    -0.048
     390.44    -0.015
     391.72    -0.020
     393.01    -0.059
     394.30     0.034
     395.59    -0.086
     396.88    -0.002
     398.17     0.048
     399.45     0.003
%%GASS      0  datapoints: v_lsr [km/s] and T_B [K] for beam weighted average and median within 6 arcmin
%%LAB     777  datapoints: v_lsr [km/s] and T_B [K]
    -399.85     0.072
    -398.82     0.076
    -397.79     0.068
    -396.76    -0.078
    -395.73    -0.146
    -394.70    -0.291
    -393.67     0.022
    -392.63    -0.205
    -391.60    -0.007
    -390.57    -0.037
    -389.54    -0.115
    -388.51    -0.070
    -387.48     0.125
    -386.45     0.040
    -385.42     0.067
    -384.39     0.004
    -383.36     0.004
    -382.33    -0.066
    -381.30    -0.016
    -380.27     0.011
    -379.24    -0.037
    -378.21    -0.100
    -377.18    -0.066
    -376.15    -0.148
    -375.12     0.239
    -374.09    -0.078
    -373.05     0.009
    -372.02     0.148
    -370.99    -0.041
    -369.96     0.029
    -368.93     0.057
    -367.90     0.012
    -366.87     0.034
    -365.84    -0.094
    -364.81     0.052
    -363.78    -0.139
    -362.75     0.029
    -361.72    -0.023
    -360.69    -0.011
    -359.66    -0.106
    -358.63     0.020
    -357.60     0.089
    -356.57    -0.003
    -355.54     0.076
    -354.50     0.003
    -353.47    -0.043
    -352.44     0.190
    -351.41    -0.043
    -350.38     0.056
    -349.35     0.062
    -348.32    -0.044
    -347.29     0.107
    -346.26    -0.098
    -345.23     0.058
    -344.20     0.044
    -343.17    -0.124
    -342.14     0.004
    -341.11    -0.047
    -340.08    -0.166
    -339.05     0.139
    -338.02     0.144
    -336.99    -0.189
    -335.96    -0.132
    -334.92     0.191
    -333.89    -0.007
    -332.86     0.132
    -331.83     0.191
    -330.80     0.091
    -329.77    -0.046
    -328.74     0.011
    -327.71    -0.147
    -326.68    -0.112
    -325.65    -0.003
    -324.62     0.015
    -323.59     0.106
    -322.56    -0.116
    -321.53     0.220
    -320.50     0.027
    -319.47     0.071
    -318.44    -0.011
    -317.41    -0.079
    -316.38    -0.030
    -315.34     0.066
    -314.31    -0.173
    -313.28     0.039
    -312.25    -0.043
    -311.22     0.180
    -310.19     0.006
    -309.16     0.077
    -308.13     0.000
    -307.10     0.068
    -306.07     0.032
    -305.04    -0.018
    -304.01    -0.043
    -302.98    -0.005
    -301.95    -0.033
    -300.92     0.012
    -299.89    -0.039
    -298.86     0.095
    -297.83     0.072
    -296.79     0.124
    -295.76    -0.084
    -294.73    -0.014
    -293.70    -0.076
    -292.67     0.016
    -291.64     0.065
    -290.61    -0.043
    -289.58    -0.033
    -288.55     0.045
    -287.52    -0.038
    -286.49    -0.043
    -285.46     0.054
    -284.43     0.184
    -283.40    -0.121
    -282.37     0.148
    -281.34     0.117
    -280.31     0.035
    -279.28     0.009
    -278.25    -0.146
    -277.21     0.044
    -276.18    -0.025
    -275.15     0.213
    -274.12     0.143
    -273.09    -0.088
    -272.06     0.072
    -271.03     0.045
    -270.00    -0.230
    -268.97    -0.003
    -267.94    -0.155
    -266.91    -0.155
    -265.88    -0.014
    -264.85     0.089
    -263.82    -0.033
    -262.79    -0.228
    -261.76     0.093
    -260.73    -0.032
    -259.70     0.015
    -258.66    -0.085
    -257.63    -0.005
    -256.60     0.081
    -255.57     0.116
    -254.54    -0.074
    -253.51     0.044
    -252.48     0.086
    -251.45     0.106
    -250.42    -0.116
    -249.39    -0.273
    -248.36     0.021
    -247.33     0.013
    -246.30     0.012
    -245.27    -0.175
    -244.24     0.084
    -243.21     0.172
    -242.18    -0.025
    -241.15     0.025
    -240.12    -0.118
    -239.08     0.053
    -238.05    -0.068
    -237.02     0.176
    -235.99    -0.076
    -234.96     0.020
    -233.93     0.125
    -232.90     0.084
    -231.87     0.077
    -230.84     0.181
    -229.81    -0.069
    -228.78    -0.124
    -227.75    -0.048
    -226.72     0.176
    -225.69    -0.048
    -224.66    -0.003
    -223.63    -0.062
    -222.60    -0.021
    -221.57    -0.173
    -220.54     0.050
    -219.50     0.026
    -218.47     0.008
    -217.44    -0.052
    -216.41     0.136
    -215.38     0.030
    -214.35     0.102
    -213.32     0.154
    -212.29     0.081
    -211.26    -0.003
    -210.23     0.025
    -209.20     0.149
    -208.17     0.025
    -207.14     0.024
    -206.11    -0.046
    -205.08    -0.042
    -204.05     0.035
    -203.02     0.194
    -201.99     0.074
    -200.95    -0.018
    -199.92    -0.056
    -198.89     0.040
    -197.86    -0.066
    -196.83    -0.112
    -195.80     0.043
    -194.77    -0.098
    -193.74     0.059
    -192.71    -0.046
    -191.68     0.007
    -190.65     0.102
    -189.62     0.018
    -188.59     0.088
    -187.56    -0.096
    -186.53    -0.092
    -185.50     0.026
    -184.47     0.011
    -183.44     0.077
    -182.41     0.012
    -181.37     0.022
    -180.34    -0.211
    -179.31     0.018
    -178.28     0.089
    -177.25    -0.056
    -176.22     0.065
    -175.19     0.171
    -174.16    -0.039
    -173.13    -0.005
    -172.10     0.035
    -171.07     0.109
    -170.04    -0.061
    -169.01    -0.050
    -167.98    -0.025
    -166.95     0.049
    -165.92     0.076
    -164.89     0.107
    -163.86     0.056
    -162.82     0.195
    -161.79    -0.009
    -160.76     0.165
    -159.73     0.189
    -158.70     0.261
    -157.67     0.116
    -156.64     0.188
    -155.61     0.084
    -154.58     0.335
    -153.55     0.238
    -152.52     0.402
    -151.49     0.234
    -150.46     0.527
    -149.43     0.177
    -148.40     0.488
    -147.37     0.480
    -146.34     0.547
    -145.31     0.407
    -144.28     0.411
    -143.24     0.416
    -142.21     0.621
    -141.18     0.462
    -140.15     0.672
    -139.12     0.621
    -138.09     0.595
    -137.06     0.543
    -136.03     0.577
    -135.00     0.567
    -133.97     0.811
    -132.94     0.598
    -131.91     0.844
    -130.88     0.757
    -129.85     1.029
    -128.82     0.916
    -127.79     1.300
    -126.76     1.191
    -125.73     1.441
    -124.70     1.557
    -123.66     1.682
    -122.63     1.795
    -121.60     2.049
    -120.57     2.193
    -119.54     2.231
    -118.51     2.473
    -117.48     2.826
    -116.45     2.764
    -115.42     2.849
    -114.39     2.743
    -113.36     2.840
    -112.33     2.809
    -111.30     2.938
    -110.27     2.794
    -109.24     2.656
    -108.21     2.664
    -107.18     2.722
    -106.15     2.852
    -105.11     2.858
    -104.08     2.870
    -103.05     2.853
    -102.02     2.898
    -100.99     3.041
     -99.96     3.202
     -98.93     3.236
     -97.90     3.049
     -96.87     3.034
     -95.84     3.043
     -94.81     3.072
     -93.78     3.318
     -92.75     3.314
     -91.72     3.495
     -90.69     3.307
     -89.66     3.343
     -88.63     3.377
     -87.60     3.517
     -86.57     3.679
     -85.53     3.731
     -84.50     4.138
     -83.47     4.170
     -82.44     5.058
     -81.41     5.286
     -80.38     5.658
     -79.35     6.323
     -78.32     6.829
     -77.29     7.458
     -76.26     8.154
     -75.23     8.985
     -74.20     9.872
     -73.17    10.639
     -72.14    11.903
     -71.11    13.109
     -70.08    14.164
     -69.05    14.713
     -68.02    15.198
     -66.98    15.787
     -65.95    16.207
     -64.92    16.752
     -63.89    17.726
     -62.86    18.857
     -61.83    19.889
     -60.80    20.842
     -59.77    23.025
     -58.74    26.948
     -57.71    32.585
     -56.68    38.453
     -55.65    44.650
     -54.62    51.050
     -53.59    56.774
     -52.56    61.678
     -51.53    66.824
     -50.50    71.639
     -49.47    76.197
     -48.44    78.816
     -47.40    80.821
     -46.37    81.956
     -45.34    83.078
     -44.31    82.806
     -43.28    82.380
     -42.25    81.080
     -41.22    78.849
     -40.19    75.278
     -39.16    70.703
     -38.13    65.305
     -37.10    59.580
     -36.07    54.305
     -35.04    48.818
     -34.01    43.395
     -32.98    37.900
     -31.95    32.242
     -30.92    26.817
     -29.89    22.014
     -28.86    17.785
     -27.82    14.577
     -26.79    12.002
     -25.76    10.123
     -24.73     8.873
     -23.70     7.804
     -22.67     7.588
     -21.64     7.546
     -20.61     8.035
     -19.58     9.348
     -18.55    11.753
     -17.52    15.275
     -16.49    21.059
     -15.46    26.951
     -14.43    30.268
     -13.40    29.356
     -12.37    27.542
     -11.34    26.023
     -10.31    26.287
      -9.27    27.541
      -8.24    30.895
      -7.21    36.803
      -6.18    45.161
      -5.15    56.688
      -4.12    69.698
      -3.09    79.323
      -2.06    81.897
      -1.03    83.726
       0.00    81.425
       1.03    73.323
       2.06    61.927
       3.09    50.687
       4.12    39.032
       5.15    26.989
       6.18    19.175
       7.21    14.063
       8.24    10.809
       9.27     8.088
      10.31     6.502
      11.34     5.108
      12.37     4.021
      13.40     3.202
      14.43     2.666
      15.46     2.334
      16.49     1.711
      17.52     1.543
      18.55     1.231
      19.58     0.967
      20.61     1.122
      21.64     0.715
      22.67     0.895
      23.70     0.699
      24.73     0.715
      25.76     0.500
      26.79     0.529
      27.82     0.365
      28.86     0.362
      29.89     0.372
      30.92     0.330
      31.95     0.167
      32.98     0.197
      34.01     0.118
      35.04     0.118
      36.07    -0.039
      37.10     0.203
      38.13    -0.056
      39.16     0.108
      40.19    -0.050
      41.22     0.079
      42.25     0.016
      43.28    -0.144
      44.31     0.057
      45.34    -0.009
      46.37     0.004
      47.40     0.065
      48.44    -0.026
      49.47     0.006
      50.50     0.129
      51.53     0.015
      52.56    -0.020
      53.59     0.091
      54.62     0.016
      55.65     0.140
      56.68     0.131
      57.71     0.134
      58.74     0.059
      59.77     0.009
      60.80     0.138
      61.83     0.068
      62.86     0.148
      63.89     0.177
      64.92    -0.192
      65.95    -0.125
      66.98    -0.101
      68.02     0.118
      69.05     0.120
      70.08    -0.232
      71.11     0.031
      72.14     0.004
      73.17     0.048
      74.20    -0.043
      75.23    -0.106
      76.26     0.186
      77.29    -0.096
      78.32     0.061
      79.35    -0.038
      80.38     0.082
      81.41    -0.096
      82.44    -0.106
      83.47     0.070
      84.50    -0.060
      85.53     0.052
      86.57    -0.089
      87.60    -0.003
      88.63     0.052
      89.66    -0.133
      90.69    -0.105
      91.72     0.150
      92.75    -0.103
      93.78     0.008
      94.81    -0.073
      95.84    -0.123
      96.87     0.090
      97.90    -0.047
      98.93     0.036
      99.96     0.091
     100.99    -0.034
     102.02     0.320
     103.05     0.008
     104.08    -0.006
     105.11     0.058
     106.15    -0.053
     107.18     0.049
     108.21     0.088
     109.24    -0.032
     110.27    -0.100
     111.30    -0.080
     112.33     0.025
     113.36     0.117
     114.39     0.097
     115.42    -0.001
     116.45    -0.148
     117.48    -0.076
     118.51    -0.139
     119.54     0.168
     120.57     0.186
     121.60    -0.016
     122.63     0.039
     123.66     0.109
     124.70     0.166
     125.73     0.166
     126.76     0.174
     127.79     0.041
     128.82     0.016
     129.85    -0.112
     130.88    -0.047
     131.91     0.120
     132.94    -0.078
     133.97    -0.271
     135.00    -0.084
     136.03     0.107
     137.06     0.081
     138.09    -0.028
     139.12    -0.051
     140.15    -0.034
     141.18    -0.098
     142.21     0.082
     143.24    -0.109
     144.28    -0.041
     145.31     0.052
     146.34    -0.035
     147.37     0.172
     148.40     0.047
     149.43    -0.115
     150.46    -0.053
     151.49    -0.101
     152.52    -0.143
     153.55    -0.042
     154.58     0.141
     155.61     0.154
     156.64     0.067
     157.67     0.071
     158.70     0.139
     159.73    -0.138
     160.76     0.120
     161.79    -0.124
     162.82    -0.057
     163.86    -0.120
     164.89     0.071
     165.92     0.062
     166.95    -0.078
     167.98    -0.124
     169.01     0.220
     170.04    -0.001
     171.07    -0.048
     172.10    -0.094
     173.13    -0.107
     174.16     0.006
     175.19     0.030
     176.22    -0.120
     177.25    -0.187
     178.28     0.002
     179.31     0.017
     180.34     0.045
     181.37    -0.006
     182.41     0.170
     183.44     0.147
     184.47     0.057
     185.50     0.040
     186.53     0.027
     187.56    -0.009
     188.59     0.071
     189.62     0.065
     190.65     0.039
     191.68     0.167
     192.71     0.065
     193.74    -0.101
     194.77    -0.025
     195.80     0.115
     196.83     0.016
     197.86     0.035
     198.89     0.029
     199.92     0.024
     200.95    -0.153
     201.99     0.022
     203.02     0.015
     204.05     0.098
     205.08    -0.002
     206.11    -0.003
     207.14    -0.088
     208.17     0.121
     209.20     0.113
     210.23    -0.055
     211.26    -0.215
     212.29    -0.026
     213.32    -0.043
     214.35    -0.034
     215.38     0.108
     216.41     0.072
     217.44     0.015
     218.47     0.184
     219.50    -0.065
     220.54     0.130
     221.57     0.062
     222.60    -0.079
     223.63     0.061
     224.66     0.086
     225.69     0.174
     226.72    -0.035
     227.75    -0.020
     228.78    -0.042
     229.81     0.084
     230.84     0.008
     231.87    -0.044
     232.90     0.079
     233.93    -0.173
     234.96    -0.105
     235.99    -0.219
     237.02    -0.023
     238.05    -0.044
     239.08     0.170
     240.12     0.090
     241.15     0.082
     242.18     0.020
     243.21     0.093
     244.24    -0.085
     245.27     0.161
     246.30    -0.112
     247.33     0.065
     248.36    -0.193
     249.39    -0.098
     250.42    -0.076
     251.45    -0.002
     252.48     0.071
     253.51    -0.041
     254.54     0.162
     255.57     0.058
     256.60    -0.028
     257.63    -0.096
     258.66     0.003
     259.70    -0.220
     260.73    -0.078
     261.76    -0.052
     262.79    -0.079
     263.82     0.047
     264.85     0.003
     265.88    -0.020
     266.91     0.000
     267.94     0.015
     268.97    -0.021
     270.00     0.079
     271.03     0.061
     272.06    -0.118
     273.09     0.129
     274.12     0.058
     275.15    -0.151
     276.18     0.082
     277.21    -0.094
     278.25     0.072
     279.28    -0.147
     280.31     0.081
     281.34    -0.089
     282.37    -0.016
     283.40     0.017
     284.43    -0.026
     285.46    -0.056
     286.49    -0.069
     287.52    -0.035
     288.55    -0.080
     289.58     0.109
     290.61    -0.076
     291.64    -0.125
     292.67    -0.123
     293.70    -0.155
     294.73    -0.102
     295.76    -0.085
     296.79     0.126
     297.83    -0.101
     298.86    -0.046
     299.89     0.017
     300.92    -0.007
     301.95     0.061
     302.98     0.145
     304.01    -0.034
     305.04    -0.061
     306.07     0.013
     307.10     0.077
     308.13    -0.025
     309.16     0.013
     310.19     0.108
     311.22     0.029
     312.25     0.050
     313.28    -0.198
     314.31     0.038
     315.34     0.045
     316.38     0.100
     317.41    -0.037
     318.44     0.094
     319.47     0.030
     320.50    -0.106
     321.53     0.072
     322.56     0.000
     323.59     0.131
     324.62     0.039
     325.65    -0.053
     326.68     0.102
     327.71     0.026
     328.74     0.075
     329.77     0.091
     330.80     0.134
     331.83     0.156
     332.86     0.090
     333.89     0.015
     334.92    -0.118
     335.96     0.085
     336.99    -0.061
     338.02     0.225
     339.05    -0.109
     340.08    -0.024
     341.11    -0.035
     342.14     0.054
     343.17    -0.030
     344.20    -0.038
     345.23    -0.101
     346.26    -0.171
     347.29     0.015
     348.32    -0.066
     349.35     0.203
     350.38     0.227
     351.41    -0.075
     352.44    -0.038
     353.47    -0.139
     354.51     0.018
     355.54    -0.115
     356.57     0.020
     357.60    -0.106
     358.63     0.011
     359.66    -0.114
     360.69    -0.109
     361.72     0.024
     362.75    -0.026
     363.78     0.035
     364.81     0.006
     365.84    -0.005
     366.87    -0.001
     367.90    -0.046
     368.93     0.162
     369.96    -0.053
     370.99    -0.073
     372.02    -0.071
     373.05     0.107
     374.09    -0.051
     375.12     0.088
     376.15     0.003
     377.18     0.090
     378.21     0.006
     379.24    -0.024
     380.27    -0.005
     381.30     0.112
     382.33    -0.037
     383.36    -0.005
     384.39    -0.056
     385.42     0.091
     386.45    -0.033
     387.48    -0.015
     388.51     0.039
     389.54     0.024
     390.57     0.020
     391.60     0.066
     392.63    -0.098
     393.67     0.052
     394.70     0.168
     395.73     0.052
     396.76     0.057
     397.79     0.209
     398.82     0.008
     399.85     0.068
