%%            110.00000            -1.00000    0             0.12700
% LAB  survey ------------------
% wanted position:  l, b, RA, DEC, and interpolated  NH
%110.00 ;  -1.00 ; 346.91 ;  59.24 ;  0.670E+22
% nearest position: l, b, RA, DEC, and observed NH
%110.00 ;  -1.00 ; 346.91 ;  59.24 ;  0.670E+22
% GASS III survey --------------
% NH - median within 6 arcmin radius   0.00    
% NH - mean within specified beam      0.00    
% EBHIS survey -----------------
% NH  within specified beam           0.678E+22
%%EBHIS   621  datapoints: v_lsr [km/s] and T_B [K]
    -399.25    -0.030
    -397.96    -0.056
    -396.68     0.005
    -395.39     0.016
    -394.10     0.011
    -392.81    -0.050
    -391.52     0.029
    -390.23    -0.078
    -388.95     0.021
    -387.66     0.011
    -386.37    -0.052
    -385.08     0.040
    -383.79     0.082
    -382.50     0.145
    -381.22     0.077
    -379.93    -0.010
    -378.64    -0.003
    -377.35    -0.024
    -376.06    -0.023
    -374.78    -0.048
    -373.49     0.055
    -372.20     0.031
    -370.91    -0.029
    -369.62     0.011
    -368.33    -0.005
    -367.05     0.100
    -365.76     0.036
    -364.47     0.027
    -363.18     0.046
    -361.89     0.035
    -360.60     0.005
    -359.32     0.023
    -358.03    -0.026
    -356.74    -0.002
    -355.45    -0.017
    -354.16    -0.013
    -352.88    -0.056
    -351.59     0.019
    -350.30     0.087
    -349.01    -0.062
    -347.72    -0.064
    -346.43     0.056
    -345.15     0.090
    -343.86    -0.066
    -342.57     0.045
    -341.28    -0.087
    -339.99    -0.124
    -338.70    -0.024
    -337.42     0.020
    -336.13     0.048
    -334.84    -0.010
    -333.55    -0.011
    -332.26     0.062
    -330.98    -0.088
    -329.69    -0.098
    -328.40    -0.023
    -327.11     0.011
    -325.82    -0.092
    -324.53     0.008
    -323.25    -0.069
    -321.96    -0.128
    -320.67    -0.038
    -319.38    -0.080
    -318.09     0.043
    -316.80     0.090
    -315.52     0.019
    -314.23     0.002
    -312.94     0.060
    -311.65     0.004
    -310.36    -0.080
    -309.08    -0.127
    -307.79    -0.046
    -306.50    -0.053
    -305.21     0.030
    -303.92     0.032
    -302.63     0.001
    -301.35     0.025
    -300.06     0.034
    -298.77    -0.040
    -297.48     0.103
    -296.19     0.001
    -294.90     0.040
    -293.62    -0.017
    -292.33     0.054
    -291.04    -0.065
    -289.75     0.072
    -288.46     0.055
    -287.18     0.051
    -285.89    -0.016
    -284.60     0.007
    -283.31     0.046
    -282.02    -0.030
    -280.73     0.002
    -279.45     0.076
    -278.16    -0.034
    -276.87     0.027
    -275.58    -0.126
    -274.29    -0.006
    -273.00     0.059
    -271.72    -0.108
    -270.43    -0.006
    -269.14     0.025
    -267.85     0.010
    -266.56    -0.003
    -265.28    -0.021
    -263.99    -0.018
    -262.70    -0.055
    -261.41     0.027
    -260.12     0.059
    -258.83    -0.029
    -257.55     0.092
    -256.26    -0.067
    -254.97    -0.096
    -253.68    -0.073
    -252.39     0.022
    -251.10    -0.092
    -249.82    -0.015
    -248.53    -0.040
    -247.24    -0.083
    -245.95    -0.061
    -244.66    -0.018
    -243.38     0.030
    -242.09     0.051
    -240.80     0.035
    -239.51    -0.019
    -238.22     0.057
    -236.93    -0.080
    -235.65     0.012
    -234.36    -0.010
    -233.07    -0.002
    -231.78     0.003
    -230.49     0.025
    -229.20    -0.030
    -227.92     0.093
    -226.63    -0.001
    -225.34     0.061
    -224.05     0.013
    -222.76    -0.038
    -221.48     0.014
    -220.19     0.020
    -218.90     0.137
    -217.61     0.017
    -216.32     0.064
    -215.03     0.123
    -213.75     0.089
    -212.46    -0.059
    -211.17    -0.086
    -209.88    -0.063
    -208.59     0.029
    -207.30    -0.095
    -206.02    -0.073
    -204.73    -0.052
    -203.44     0.063
    -202.15    -0.042
    -200.86    -0.002
    -199.58     0.083
    -198.29    -0.017
    -197.00    -0.001
    -195.71     0.065
    -194.42     0.075
    -193.13     0.051
    -191.85     0.133
    -190.56     0.031
    -189.27     0.048
    -187.98     0.034
    -186.69     0.031
    -185.40     0.025
    -184.12     0.056
    -182.83     0.098
    -181.54    -0.004
    -180.25     0.029
    -178.96     0.115
    -177.68     0.064
    -176.39     0.091
    -175.10     0.166
    -173.81     0.228
    -172.52     0.298
    -171.23     0.271
    -169.95     0.240
    -168.66     0.298
    -167.37     0.299
    -166.08     0.455
    -164.79     0.394
    -163.50     0.603
    -162.22     0.525
    -160.93     0.748
    -159.64     0.777
    -158.35     0.880
    -157.06     0.988
    -155.78     1.083
    -154.49     1.028
    -153.20     1.053
    -151.91     1.053
    -150.62     0.942
    -149.33     0.832
    -148.05     0.847
    -146.76     0.700
    -145.47     0.633
    -144.18     0.684
    -142.89     0.564
    -141.60     0.474
    -140.32     0.516
    -139.03     0.473
    -137.74     0.450
    -136.45     0.529
    -135.16     0.598
    -133.88     0.560
    -132.59     0.632
    -131.30     0.774
    -130.01     0.767
    -128.72     0.971
    -127.43     1.436
    -126.15     1.529
    -124.86     1.653
    -123.57     1.953
    -122.28     2.386
    -120.99     2.853
    -119.70     3.244
    -118.42     3.682
    -117.13     4.227
    -115.84     4.573
    -114.55     4.591
    -113.26     4.605
    -111.98     4.840
    -110.69     4.957
    -109.40     5.193
    -108.11     5.451
    -106.82     5.679
    -105.53     5.938
    -104.25     6.139
    -102.96     5.984
    -101.67     6.109
    -100.38     6.193
     -99.09     6.210
     -97.80     6.306
     -96.52     6.126
     -95.23     5.688
     -93.94     5.224
     -92.65     4.723
     -91.36     4.322
     -90.08     4.093
     -88.79     3.646
     -87.50     3.520
     -86.21     3.646
     -84.92     3.918
     -83.63     4.335
     -82.35     4.824
     -81.06     5.778
     -79.77     7.042
     -78.48     8.807
     -77.19    10.898
     -75.90    12.894
     -74.62    13.989
     -73.33    14.547
     -72.04    14.869
     -70.75    14.901
     -69.46    15.414
     -68.18    15.650
     -66.89    16.616
     -65.60    18.759
     -64.31    23.848
     -63.02    32.278
     -61.73    43.142
     -60.45    53.508
     -59.16    61.906
     -57.87    70.837
     -56.58    80.414
     -55.29    88.564
     -54.00    90.672
     -52.72    78.804
     -51.43    64.039
     -50.14    55.854
     -48.85    52.781
     -47.56    52.685
     -46.28    55.332
     -44.99    58.042
     -43.70    58.119
     -42.41    55.855
     -41.12    55.304
     -39.83    57.919
     -38.55    61.798
     -37.26    63.923
     -35.97    63.232
     -34.68    59.923
     -33.39    54.772
     -32.10    50.555
     -30.82    45.511
     -29.53    36.945
     -28.24    27.496
     -26.95    19.742
     -25.66    15.251
     -24.38    12.875
     -23.09    11.398
     -21.80    10.427
     -20.51    10.041
     -19.22     9.927
     -17.93    10.419
     -16.65    11.390
     -15.36    13.112
     -14.07    15.659
     -12.78    19.625
     -11.49    25.719
     -10.20    33.245
      -8.92    39.785
      -7.63    45.502
      -6.34    49.618
      -5.05    52.583
      -3.76    55.287
      -2.48    60.410
      -1.19    65.837
       0.10    66.181
       1.39    60.687
       2.68    50.216
       3.97    34.991
       5.25    21.011
       6.54    13.562
       7.83     9.303
       9.12     6.730
      10.41     5.099
      11.70     3.981
      12.98     3.089
      14.27     2.490
      15.56     2.009
      16.85     1.615
      18.14     1.425
      19.42     1.099
      20.71     0.906
      22.00     0.733
      23.29     0.533
      24.58     0.557
      25.87     0.402
      27.15     0.292
      28.44     0.254
      29.73     0.333
      31.02     0.086
      32.31     0.039
      33.60     0.194
      34.88     0.142
      36.17     0.113
      37.46     0.038
      38.75     0.174
      40.04     0.017
      41.32     0.051
      42.61     0.113
      43.90     0.122
      45.19    -0.025
      46.48    -0.014
      47.77     0.079
      49.05    -0.017
      50.34    -0.097
      51.63     0.056
      52.92    -0.077
      54.21    -0.001
      55.50     0.087
      56.78     0.014
      58.07    -0.040
      59.36    -0.002
      60.65    -0.140
      61.94    -0.010
      63.22    -0.017
      64.51    -0.093
      65.80    -0.035
      67.09     0.125
      68.38     0.110
      69.67     0.032
      70.95    -0.043
      72.24    -0.050
      73.53     0.070
      74.82    -0.034
      76.11    -0.027
      77.40     0.033
      78.68    -0.004
      79.97    -0.037
      81.26    -0.002
      82.55    -0.040
      83.84    -0.016
      85.12     0.105
      86.41     0.106
      87.70     0.094
      88.99     0.102
      90.28     0.003
      91.57     0.031
      92.85     0.002
      94.14     0.007
      95.43     0.017
      96.72     0.014
      98.01     0.125
      99.30    -0.081
     100.58    -0.004
     101.87     0.017
     103.16     0.117
     104.45     0.009
     105.74    -0.007
     107.02    -0.003
     108.31    -0.059
     109.60    -0.066
     110.89    -0.074
     112.18    -0.055
     113.47     0.027
     114.75    -0.046
     116.04    -0.094
     117.33    -0.050
     118.62     0.046
     119.91    -0.092
     121.20     0.149
     122.48    -0.047
     123.77    -0.032
     125.06    -0.027
     126.35    -0.058
     127.64    -0.122
     128.92     0.003
     130.21     0.008
     131.50     0.004
     132.79     0.002
     134.08    -0.006
     135.37     0.041
     136.65     0.045
     137.94     0.025
     139.23     0.003
     140.52    -0.020
     141.81     0.031
     143.09    -0.084
     144.38     0.048
     145.67     0.038
     146.96    -0.062
     148.25    -0.112
     149.54    -0.020
     150.82     0.103
     152.11     0.029
     153.40    -0.116
     154.69     0.028
     155.98    -0.038
     157.27    -0.005
     158.55    -0.010
     159.84     0.103
     161.13     0.059
     162.42    -0.033
     163.71    -0.029
     164.99     0.042
     166.28    -0.022
     167.57    -0.023
     168.86    -0.035
     170.15    -0.051
     171.44    -0.032
     172.72     0.006
     174.01     0.144
     175.30    -0.002
     176.59    -0.045
     177.88    -0.104
     179.17    -0.034
     180.45    -0.018
     181.74    -0.035
     183.03     0.052
     184.32     0.093
     185.61    -0.021
     186.89    -0.060
     188.18     0.039
     189.47     0.102
     190.76    -0.067
     192.05     0.009
     193.34    -0.008
     194.62    -0.050
     195.91    -0.042
     197.20    -0.007
     198.49    -0.076
     199.78    -0.001
     201.07     0.024
     202.35    -0.063
     203.64    -0.080
     204.93     0.044
     206.22     0.030
     207.51    -0.016
     208.79     0.026
     210.08     0.104
     211.37    -0.015
     212.66     0.042
     213.95    -0.043
     215.24     0.034
     216.52    -0.057
     217.81    -0.009
     219.10    -0.030
     220.39     0.067
     221.68     0.048
     222.97     0.031
     224.25    -0.034
     225.54    -0.041
     226.83    -0.019
     228.12     0.020
     229.41    -0.034
     230.69    -0.058
     231.98     0.089
     233.27     0.082
     234.56     0.104
     235.85     0.092
     237.14     0.022
     238.42     0.009
     239.71    -0.048
     241.00     0.003
     242.29     0.069
     243.58     0.063
     244.87    -0.034
     246.15    -0.008
     247.44     0.144
     248.73     0.079
     250.02     0.016
     251.31    -0.021
     252.59     0.082
     253.88     0.024
     255.17    -0.022
     256.46     0.017
     257.75     0.099
     259.04     0.053
     260.32     0.010
     261.61    -0.012
     262.90     0.049
     264.19     0.040
     265.48     0.080
     266.77     0.015
     268.05    -0.001
     269.34    -0.046
     270.63     0.102
     271.92     0.045
     273.21     0.058
     274.49    -0.107
     275.78    -0.049
     277.07     0.023
     278.36     0.038
     279.65    -0.026
     280.94     0.062
     282.22    -0.024
     283.51    -0.060
     284.80    -0.053
     286.09    -0.029
     287.38     0.036
     288.67     0.082
     289.95    -0.035
     291.24    -0.091
     292.53     0.024
     293.82    -0.013
     295.11    -0.033
     296.39     0.031
     297.68    -0.060
     298.97    -0.050
     300.26    -0.013
     301.55     0.049
     302.84    -0.049
     304.12     0.030
     305.41     0.042
     306.70     0.031
     307.99    -0.122
     309.28    -0.024
     310.57    -0.069
     311.85     0.019
     313.14    -0.044
     314.43     0.012
     315.72    -0.006
     317.01    -0.105
     318.29     0.025
     319.58     0.062
     320.87     0.029
     322.16     0.104
     323.45     0.093
     324.74     0.067
     326.02    -0.031
     327.31    -0.052
     328.60    -0.028
     329.89    -0.036
     331.18    -0.035
     332.47     0.052
     333.75    -0.062
     335.04     0.015
     336.33     0.069
     337.62     0.087
     338.91     0.037
     340.19    -0.027
     341.48     0.033
     342.77     0.001
     344.06     0.024
     345.35     0.118
     346.64     0.060
     347.92    -0.012
     349.21     0.072
     350.50     0.039
     351.79     0.022
     353.08     0.045
     354.37    -0.006
     355.65    -0.050
     356.94     0.035
     358.23    -0.093
     359.52     0.007
     360.81     0.018
     362.09    -0.062
     363.38    -0.022
     364.67    -0.029
     365.96    -0.037
     367.25    -0.093
     368.54     0.075
     369.82    -0.013
     371.11     0.051
     372.40    -0.016
     373.69    -0.004
     374.98     0.034
     376.27     0.041
     377.55     0.075
     378.84     0.076
     380.13    -0.047
     381.42     0.013
     382.71     0.085
     383.99     0.056
     385.28     0.055
     386.57     0.057
     387.86    -0.050
     389.15    -0.060
     390.44     0.022
     391.72     0.069
     393.01     0.094
     394.30     0.009
     395.59    -0.049
     396.88    -0.082
     398.17    -0.011
     399.45    -0.040
%%GASS      0  datapoints: v_lsr [km/s] and T_B [K] for beam weighted average and median within 6 arcmin
%%LAB     777  datapoints: v_lsr [km/s] and T_B [K]
    -399.85     0.153
    -398.82     0.058
    -397.79    -0.054
    -396.76    -0.063
    -395.73    -0.016
    -394.70    -0.010
    -393.67     0.079
    -392.63    -0.083
    -391.60     0.173
    -390.57    -0.078
    -389.54     0.046
    -388.51    -0.065
    -387.48    -0.036
    -386.45     0.159
    -385.42     0.114
    -384.39     0.010
    -383.36    -0.126
    -382.33    -0.112
    -381.30    -0.023
    -380.27    -0.158
    -379.24     0.007
    -378.21    -0.065
    -377.18    -0.069
    -376.15    -0.043
    -375.12    -0.186
    -374.09     0.036
    -373.05     0.123
    -372.02     0.063
    -370.99     0.129
    -369.96    -0.049
    -368.93    -0.006
    -367.90     0.029
    -366.87     0.127
    -365.84    -0.151
    -364.81    -0.143
    -363.78    -0.050
    -362.75    -0.050
    -361.72    -0.018
    -360.69    -0.097
    -359.66    -0.058
    -358.63    -0.150
    -357.60    -0.033
    -356.57     0.027
    -355.54    -0.126
    -354.50     0.072
    -353.47     0.020
    -352.44    -0.043
    -351.41     0.031
    -350.38     0.031
    -349.35    -0.126
    -348.32    -0.001
    -347.29    -0.046
    -346.26     0.031
    -345.23    -0.182
    -344.20    -0.073
    -343.17     0.084
    -342.14     0.012
    -341.11    -0.054
    -340.08     0.006
    -339.05     0.051
    -338.02     0.024
    -336.99    -0.046
    -335.96     0.023
    -334.92     0.038
    -333.89     0.076
    -332.86    -0.091
    -331.83    -0.104
    -330.80     0.006
    -329.77     0.074
    -328.74    -0.016
    -327.71    -0.112
    -326.68    -0.041
    -325.65     0.062
    -324.62     0.045
    -323.59    -0.058
    -322.56    -0.069
    -321.53    -0.011
    -320.50     0.123
    -319.47     0.021
    -318.44    -0.110
    -317.41     0.095
    -316.38     0.102
    -315.34     0.172
    -314.31    -0.114
    -313.28     0.093
    -312.25    -0.041
    -311.22    -0.129
    -310.19    -0.105
    -309.16     0.024
    -308.13    -0.130
    -307.10     0.037
    -306.07     0.028
    -305.04     0.092
    -304.01     0.126
    -302.98     0.083
    -301.95    -0.079
    -300.92     0.232
    -299.89     0.098
    -298.86    -0.130
    -297.83    -0.020
    -296.79     0.100
    -295.76     0.093
    -294.73     0.215
    -293.70     0.196
    -292.67    -0.061
    -291.64     0.125
    -290.61     0.138
    -289.58    -0.067
    -288.55     0.101
    -287.52    -0.040
    -286.49    -0.061
    -285.46    -0.171
    -284.43     0.174
    -283.40    -0.099
    -282.37     0.036
    -281.34     0.048
    -280.31     0.076
    -279.28     0.046
    -278.25    -0.163
    -277.21    -0.060
    -276.18     0.115
    -275.15     0.148
    -274.12     0.080
    -273.09    -0.014
    -272.06     0.042
    -271.03     0.033
    -270.00     0.021
    -268.97    -0.013
    -267.94     0.010
    -266.91    -0.074
    -265.88    -0.049
    -264.85    -0.048
    -263.82     0.002
    -262.79     0.078
    -261.76     0.131
    -260.73    -0.151
    -259.70     0.115
    -258.66    -0.078
    -257.63    -0.035
    -256.60    -0.041
    -255.57    -0.071
    -254.54    -0.070
    -253.51    -0.073
    -252.48    -0.032
    -251.45    -0.022
    -250.42    -0.024
    -249.39    -0.016
    -248.36    -0.003
    -247.33     0.098
    -246.30    -0.152
    -245.27     0.204
    -244.24    -0.052
    -243.21     0.108
    -242.18    -0.090
    -241.15    -0.104
    -240.12    -0.022
    -239.08     0.046
    -238.05     0.046
    -237.02     0.080
    -235.99     0.002
    -234.96    -0.006
    -233.93    -0.037
    -232.90     0.100
    -231.87    -0.058
    -230.84    -0.031
    -229.81     0.018
    -228.78     0.058
    -227.75     0.089
    -226.72     0.126
    -225.69     0.018
    -224.66     0.068
    -223.63     0.119
    -222.60    -0.052
    -221.57    -0.125
    -220.54     0.070
    -219.50     0.051
    -218.47     0.011
    -217.44    -0.009
    -216.41    -0.073
    -215.38    -0.178
    -214.35     0.012
    -213.32     0.001
    -212.29     0.033
    -211.26     0.096
    -210.23    -0.151
    -209.20    -0.164
    -208.17    -0.054
    -207.14     0.110
    -206.11     0.082
    -205.08     0.036
    -204.05     0.001
    -203.02    -0.116
    -201.99     0.078
    -200.95    -0.141
    -199.92     0.138
    -198.89     0.046
    -197.86     0.015
    -196.83     0.072
    -195.80    -0.077
    -194.77    -0.022
    -193.74    -0.018
    -192.71     0.054
    -191.68     0.031
    -190.65    -0.110
    -189.62     0.149
    -188.59     0.085
    -187.56    -0.117
    -186.53     0.123
    -185.50     0.004
    -184.47    -0.006
    -183.44     0.189
    -182.41    -0.019
    -181.37     0.132
    -180.34     0.001
    -179.31     0.029
    -178.28    -0.039
    -177.25     0.193
    -176.22     0.119
    -175.19     0.207
    -174.16    -0.032
    -173.13     0.152
    -172.10    -0.026
    -171.07     0.162
    -170.04     0.323
    -169.01     0.318
    -167.98     0.198
    -166.95     0.287
    -165.92     0.441
    -164.89     0.535
    -163.86     0.609
    -162.82     0.552
    -161.79     0.722
    -160.76     0.578
    -159.73     0.480
    -158.70     0.771
    -157.67     0.846
    -156.64     0.769
    -155.61     0.924
    -154.58     0.916
    -153.55     0.934
    -152.52     0.971
    -151.49     0.904
    -150.46     0.900
    -149.43     0.677
    -148.40     0.844
    -147.37     0.954
    -146.34     0.750
    -145.31     0.588
    -144.28     0.484
    -143.24     0.510
    -142.21     0.635
    -141.18     0.634
    -140.15     0.485
    -139.12     0.614
    -138.09     0.527
    -137.06     0.532
    -136.03     0.450
    -135.00     0.639
    -133.97     0.582
    -132.94     0.669
    -131.91     0.886
    -130.88     0.647
    -129.85     1.047
    -128.82     1.073
    -127.79     1.249
    -126.76     1.284
    -125.73     1.466
    -124.70     1.791
    -123.66     2.043
    -122.63     2.383
    -121.60     2.536
    -120.57     2.709
    -119.54     3.214
    -118.51     3.526
    -117.48     3.707
    -116.45     4.097
    -115.42     4.223
    -114.39     4.158
    -113.36     4.478
    -112.33     4.453
    -111.30     4.576
    -110.27     4.819
    -109.24     4.982
    -108.21     5.349
    -107.18     5.515
    -106.15     5.822
    -105.11     6.288
    -104.08     6.219
    -103.05     6.303
    -102.02     6.064
    -100.99     6.075
     -99.96     5.821
     -98.93     6.061
     -97.90     5.947
     -96.87     6.265
     -95.84     6.197
     -94.81     5.834
     -93.78     5.303
     -92.75     5.011
     -91.72     4.515
     -90.69     4.149
     -89.66     3.946
     -88.63     3.861
     -87.60     3.733
     -86.57     3.663
     -85.53     3.936
     -84.50     3.895
     -83.47     4.431
     -82.44     4.684
     -81.41     5.109
     -80.38     5.669
     -79.35     6.488
     -78.32     7.562
     -77.29     8.545
     -76.26    10.045
     -75.23    11.557
     -74.20    13.064
     -73.17    14.559
     -72.14    15.865
     -71.11    15.920
     -70.08    15.594
     -69.05    15.442
     -68.02    15.681
     -66.98    16.942
     -65.95    18.903
     -64.92    21.902
     -63.89    26.437
     -62.86    31.793
     -61.83    38.381
     -60.80    44.849
     -59.77    50.682
     -58.74    56.421
     -57.71    62.884
     -56.68    70.310
     -55.65    78.199
     -54.62    83.619
     -53.59    85.325
     -52.56    80.618
     -51.53    74.168
     -50.50    69.393
     -49.47    66.353
     -48.44    63.883
     -47.40    62.390
     -46.37    62.229
     -45.34    62.774
     -44.31    62.127
     -43.28    60.737
     -42.25    58.211
     -41.22    57.116
     -40.19    56.909
     -39.16    58.249
     -38.13    60.101
     -37.10    60.307
     -36.07    59.247
     -35.04    57.120
     -34.01    53.460
     -32.98    48.600
     -31.95    43.115
     -30.92    37.138
     -29.89    31.154
     -28.86    25.119
     -27.82    20.383
     -26.79    16.996
     -25.76    14.393
     -24.73    12.599
     -23.70    10.943
     -22.67    10.179
     -21.64     9.590
     -20.61     9.352
     -19.58     9.428
     -18.55     9.765
     -17.52    10.371
     -16.49    11.606
     -15.46    13.258
     -14.43    15.129
     -13.40    17.861
     -12.37    21.349
     -11.34    26.051
     -10.31    31.192
      -9.27    35.820
      -8.24    41.195
      -7.21    45.712
      -6.18    50.729
      -5.15    54.750
      -4.12    58.680
      -3.09    61.270
      -2.06    64.935
      -1.03    68.003
       0.00    67.768
       1.03    64.006
       2.06    57.103
       3.09    46.918
       4.12    34.595
       5.15    23.529
       6.18    15.954
       7.21    11.532
       8.24     8.434
       9.27     6.419
      10.31     5.234
      11.34     4.125
      12.37     3.378
      13.40     2.896
      14.43     2.465
      15.46     1.994
      16.49     1.700
      17.52     1.550
      18.55     1.181
      19.58     1.200
      20.61     0.993
      21.64     0.635
      22.67     0.796
      23.70     0.656
      24.73     0.575
      25.76     0.375
      26.79     0.319
      27.82     0.481
      28.86     0.263
      29.89     0.296
      30.92     0.157
      31.95     0.123
      32.98     0.031
      34.01     0.112
      35.04     0.117
      36.07     0.135
      37.10     0.027
      38.13     0.208
      39.16     0.142
      40.19     0.070
      41.22     0.065
      42.25    -0.058
      43.28     0.021
      44.31     0.006
      45.34    -0.009
      46.37     0.122
      47.40     0.054
      48.44    -0.022
      49.47    -0.015
      50.50    -0.020
      51.53     0.085
      52.56    -0.066
      53.59     0.079
      54.62     0.135
      55.65     0.023
      56.68    -0.018
      57.71     0.082
      58.74     0.117
      59.77     0.023
      60.80    -0.033
      61.83     0.191
      62.86    -0.103
      63.89     0.118
      64.92    -0.092
      65.95     0.061
      66.98     0.146
      68.02     0.016
      69.05     0.033
      70.08     0.110
      71.11    -0.031
      72.14    -0.142
      73.17     0.046
      74.20    -0.009
      75.23    -0.253
      76.26    -0.095
      77.29     0.058
      78.32     0.051
      79.35    -0.048
      80.38     0.036
      81.41    -0.026
      82.44     0.066
      83.47     0.152
      84.50     0.079
      85.53    -0.124
      86.57    -0.054
      87.60    -0.049
      88.63     0.101
      89.66     0.041
      90.69     0.155
      91.72    -0.159
      92.75     0.008
      93.78    -0.019
      94.81     0.097
      95.84     0.048
      96.87     0.038
      97.90    -0.108
      98.93     0.003
      99.96    -0.039
     100.99    -0.005
     102.02     0.024
     103.05     0.028
     104.08    -0.083
     105.11     0.007
     106.15     0.012
     107.18     0.187
     108.21    -0.114
     109.24     0.127
     110.27     0.079
     111.30     0.055
     112.33    -0.067
     113.36    -0.016
     114.39     0.108
     115.42    -0.039
     116.45    -0.210
     117.48     0.084
     118.51     0.102
     119.54     0.045
     120.57     0.015
     121.60     0.130
     122.63     0.083
     123.66     0.104
     124.70     0.045
     125.73     0.083
     126.76     0.087
     127.79    -0.104
     128.82     0.008
     129.85     0.016
     130.88    -0.071
     131.91    -0.032
     132.94    -0.118
     133.97     0.176
     135.00     0.024
     136.03    -0.039
     137.06    -0.010
     138.09     0.089
     139.12     0.101
     140.15     0.112
     141.18    -0.030
     142.21     0.112
     143.24     0.003
     144.28     0.042
     145.31    -0.088
     146.34     0.125
     147.37     0.065
     148.40     0.049
     149.43    -0.036
     150.46     0.072
     151.49    -0.180
     152.52    -0.052
     153.55    -0.066
     154.58    -0.001
     155.61     0.038
     156.64    -0.036
     157.67    -0.007
     158.70    -0.223
     159.73     0.075
     160.76    -0.079
     161.79    -0.022
     162.82     0.034
     163.86     0.018
     164.89     0.102
     165.92    -0.040
     166.95    -0.030
     167.98     0.123
     169.01     0.025
     170.04     0.110
     171.07     0.095
     172.10    -0.044
     173.13    -0.036
     174.16     0.023
     175.19    -0.032
     176.22    -0.155
     177.25     0.170
     178.28     0.072
     179.31     0.121
     180.34     0.191
     181.37    -0.003
     182.41    -0.003
     183.44    -0.135
     184.47    -0.126
     185.50    -0.015
     186.53     0.002
     187.56     0.063
     188.59     0.062
     189.62    -0.040
     190.65    -0.141
     191.68     0.113
     192.71    -0.158
     193.74    -0.074
     194.77    -0.114
     195.80     0.034
     196.83    -0.094
     197.86    -0.019
     198.89    -0.039
     199.92    -0.084
     200.95    -0.054
     201.99     0.102
     203.02    -0.046
     204.05     0.034
     205.08     0.051
     206.11     0.033
     207.14    -0.011
     208.17    -0.092
     209.20     0.101
     210.23     0.119
     211.26    -0.020
     212.29    -0.143
     213.32    -0.271
     214.35    -0.130
     215.38     0.006
     216.41    -0.054
     217.44     0.015
     218.47     0.040
     219.50     0.208
     220.54     0.102
     221.57    -0.133
     222.60    -0.009
     223.63    -0.127
     224.66    -0.086
     225.69     0.031
     226.72     0.127
     227.75    -0.083
     228.78     0.025
     229.81    -0.176
     230.84     0.003
     231.87    -0.073
     232.90     0.213
     233.93     0.122
     234.96     0.024
     235.99     0.023
     237.02     0.051
     238.05    -0.084
     239.08     0.078
     240.12     0.020
     241.15     0.007
     242.18     0.072
     243.21     0.050
     244.24    -0.030
     245.27    -0.075
     246.30     0.028
     247.33    -0.080
     248.36    -0.109
     249.39     0.051
     250.42    -0.078
     251.45     0.160
     252.48    -0.110
     253.51     0.125
     254.54    -0.031
     255.57     0.100
     256.60     0.100
     257.63     0.063
     258.66     0.010
     259.70     0.168
     260.73    -0.049
     261.76     0.059
     262.79    -0.071
     263.82    -0.061
     264.85    -0.018
     265.88    -0.040
     266.91     0.037
     267.94     0.046
     268.97    -0.010
     270.00     0.028
     271.03     0.033
     272.06     0.071
     273.09     0.062
     274.12    -0.039
     275.15    -0.044
     276.18    -0.080
     277.21     0.016
     278.25     0.093
     279.28    -0.069
     280.31     0.179
     281.34    -0.010
     282.37     0.020
     283.40    -0.152
     284.43     0.165
     285.46    -0.049
     286.49     0.040
     287.52    -0.048
     288.55    -0.104
     289.58    -0.020
     290.61     0.131
     291.64    -0.020
     292.67     0.002
     293.70     0.002
     294.73     0.008
     295.76    -0.069
     296.79    -0.003
     297.83    -0.143
     298.86     0.076
     299.89     0.049
     300.92    -0.018
     301.95    -0.160
     302.98    -0.104
     304.01    -0.160
     305.04     0.041
     306.07     0.061
     307.10     0.042
     308.13    -0.168
     309.16    -0.161
     310.19     0.027
     311.22    -0.031
     312.25    -0.142
     313.28    -0.144
     314.31    -0.056
     315.34     0.051
     316.38     0.054
     317.41     0.010
     318.44    -0.014
     319.47     0.072
     320.50    -0.060
     321.53     0.082
     322.56    -0.023
     323.59    -0.020
     324.62     0.006
     325.65    -0.065
     326.68    -0.067
     327.71     0.068
     328.74     0.123
     329.77    -0.019
     330.80     0.037
     331.83     0.023
     332.86     0.038
     333.89     0.161
     334.92     0.091
     335.96    -0.073
     336.99    -0.044
     338.02     0.029
     339.05    -0.050
     340.08     0.010
     341.11    -0.083
     342.14     0.140
     343.17    -0.050
     344.20     0.262
     345.23     0.079
     346.26     0.131
     347.29    -0.031
     348.32     0.079
     349.35    -0.116
     350.38    -0.040
     351.41     0.050
     352.44    -0.052
     353.47     0.016
     354.50     0.051
     355.54    -0.092
     356.57     0.040
     357.60    -0.207
     358.63     0.105
     359.66     0.063
     360.69    -0.061
     361.72    -0.211
     362.75     0.055
     363.78     0.021
     364.81    -0.031
     365.84    -0.117
     366.87    -0.003
     367.90     0.183
     368.93     0.023
     369.96    -0.019
     370.99    -0.094
     372.02    -0.052
     373.05     0.023
     374.09     0.031
     375.12     0.023
     376.15     0.053
     377.18     0.088
     378.21    -0.016
     379.24    -0.050
     380.27    -0.037
     381.30    -0.052
     382.33    -0.014
     383.36     0.288
     384.39    -0.043
     385.42    -0.146
     386.45    -0.052
     387.48    -0.165
     388.51     0.048
     389.54     0.053
     390.57    -0.104
     391.60     0.210
     392.63     0.151
     393.67     0.129
     394.70     0.019
     395.73     0.170
     396.76    -0.178
     397.79    -0.010
     398.82    -0.018
     399.85     0.080
